Acceleration X (m/s^2),Acceleration Y (m/s^2),Acceleration Z (m/s^2),Angular Velocity X (rad/s),Angular Velocity Y (rad/s),Angular Velocity Z (rad/s),Magnetic Field X (uT),Magnetic Field Y (uT),Magnetic Field Z (uT),Orientation Quaternion Scalar,Orientation Quaternion X,Orientation Quaternion Y,Orientation Quaternion Z
-9.771768,0.324261,0.541748,0.052996,-0.054217,-0.017501,20.689129,-37.957862,59.765891,0.692215,-0.182466,0.663862,0.216407
-9.788798,0.292611,0.535325,0.054748,-0.052562,-0.031505,21.15232,-38.293801,59.805341,0.692199,-0.182552,0.663834,0.21647
-9.809472,0.250228,0.532743,0.062243,-0.049878,-0.032391,20.992277,-38.122111,59.787132,0.692188,-0.182641,0.663813,0.216496
-9.791388,0.265833,0.535015,0.076102,-0.041806,-0.030581,20.976243,-37.982287,59.964283,0.692176,-0.182706,0.663814,0.216476
-9.79613,0.303273,0.541943,0.090095,-0.03597,-0.029135,20.846858,-37.97086,59.797576,0.692149,-0.182702,0.663855,0.216437
-9.805139,0.301407,0.56225,0.090133,-0.037769,-0.030871,20.982462,-38.14648,59.958655,0.692139,-0.182703,0.663879,0.216397
-9.789573,0.325862,0.573485,0.079316,-0.042435,-0.030909,20.695711,-37.967114,59.778911,0.692152,-0.18271,0.663864,0.216394
-9.790045,0.357636,0.589252,0.079281,-0.035983,-0.029307,20.528526,-37.823523,59.937428,0.692133,-0.182704,0.663884,0.216401
-9.778862,0.349594,0.602604,0.06372,-0.036936,-0.027507,20.690445,-37.959712,59.768495,0.692095,-0.182746,0.663897,0.216448
-9.755249,0.334676,0.578071,0.051508,-0.036101,-0.026534,20.529836,-37.825368,59.940039,0.692034,-0.182828,0.663912,0.216526
-9.763776,0.303572,0.533099,0.036146,-0.039571,-0.02363,20.532039,-37.984006,59.92657,0.691964,-0.182947,0.663912,0.216652
-9.788919,0.252181,0.505734,0.048224,-0.030647,-0.032776,20.690028,-38.114619,59.749809,0.691886,-0.183071,0.663939,0.21671
-9.847769,0.221849,0.530538,0.060679,-0.035688,-0.029414,20.676626,-37.978497,59.932182,0.691836,-0.183161,0.663957,0.216739
-9.848516,0.276584,0.523823,0.079218,-0.031049,-0.030909,20.693977,-38.120188,59.757619,0.691788,-0.183203,0.664003,0.216716
-9.796544,0.323435,0.539645,0.080726,-0.022882,-0.024329,20.392111,-37.957771,59.73898,0.691713,-0.183212,0.664081,0.216711
-9.741693,0.31045,0.530562,0.077537,-0.020771,-0.022453,20.539738,-37.801059,59.768519,0.691627,-0.183229,0.664164,0.216716
-9.748436,0.32016,0.600472,0.073024,-0.030681,-0.020978,20.676626,-37.978497,59.932182,0.691581,-0.183239,0.664199,0.216746
-9.831177,0.344389,0.580154,0.052944,-0.027763,-0.026388,20.375658,-37.972856,59.897466,0.691503,-0.183321,0.664236,0.216813
-9.818366,0.403188,0.555389,0.048391,-0.040528,-0.023042,20.845119,-38.123934,59.776283,0.691448,-0.183389,0.664241,0.216914
-9.782593,0.309606,0.537408,0.049925,-0.037209,-0.018077,20.828249,-38.293943,59.91608,0.691383,-0.183456,0.664258,0.217014
-9.738856,0.274102,0.519302,0.043573,-0.023946,-0.019656,20.689194,-38.424432,59.712437,0.691278,-0.183559,0.664305,0.217116
-9.807593,0.2845,0.546304,0.052901,-0.027193,-0.014608,20.523346,-38.282725,59.873535,0.691187,-0.18362,0.664353,0.217209
-9.832889,0.313181,0.481128,0.051507,-0.034388,-0.02158,20.847346,-38.282583,59.762801,0.691114,-0.183696,0.66438,0.217291
-9.791435,0.303733,0.465448,0.056107,-0.025026,-0.026649,20.713964,-38.265611,59.588233,0.691024,-0.183783,0.664434,0.217339
-9.814055,0.255102,0.505751,0.055973,-0.025694,-0.01954,20.388667,-38.263895,59.696401,0.690935,-0.183855,0.664485,0.217404
-9.828932,0.325672,0.45843,0.05911,-0.031998,-0.014469,20.825189,-38.44513,59.892173,0.690854,-0.183894,0.664533,0.217483
-9.812749,0.337565,0.48561,0.0715,-0.024619,-0.022902,20.845607,-38.435651,59.741509,0.690774,-0.183925,0.664601,0.217503
-9.785145,0.297239,0.494431,0.074432,-0.023861,-0.024037,20.839414,-38.271409,59.747181,0.6907,-0.183958,0.664669,0.217506
-9.783056,0.346184,0.535198,0.05919,-0.030905,-0.016422,20.677589,-38.60192,59.862649,0.690629,-0.183995,0.664707,0.217582
-9.792499,0.348068,0.487796,0.056019,-0.027384,-0.016309,20.707862,-38.568002,59.540474,0.690541,-0.184046,0.664758,0.217662
-9.801831,0.364361,0.467557,0.054505,-0.031005,-0.027992,20.542418,-38.271365,59.720267,0.690469,-0.184126,0.664793,0.217716
-9.817307,0.302272,0.474123,0.055929,-0.030335,-0.025934,20.402092,-38.39999,59.514055,0.690398,-0.184207,0.664828,0.217766
-9.780889,0.296378,0.462767,0.07589,-0.025025,-0.025371,20.517215,-38.118529,59.879174,0.690327,-0.184241,0.664895,0.217757
-9.764225,0.304786,0.510397,0.079172,-0.02128,-0.024367,20.240552,-38.108949,59.701628,0.690256,-0.184259,0.664968,0.217743
-9.80999,0.315097,0.505931,0.080796,-0.026552,-0.031114,20.226695,-38.127747,59.86533,0.690209,-0.184286,0.665022,0.217709
-9.806679,0.363638,0.492198,0.072931,-0.025589,-0.022486,20.203754,-38.133548,60.010755,0.690139,-0.184301,0.665084,0.217726
-9.783175,0.31763,0.487675,0.062066,-0.022235,-0.022591,20.806513,-38.301575,60.064098,0.690053,-0.184359,0.665145,0.217764
-9.75522,0.311456,0.460849,0.062223,-0.029356,-0.026227,20.677107,-38.290197,59.897417,0.689986,-0.184424,0.665186,0.217794
-9.773401,0.304927,0.499124,0.06681,-0.021331,-0.02622,20.677107,-38.290197,59.897417,0.689908,-0.18448,0.665247,0.217807
-9.828615,0.319391,0.474287,0.062233,-0.032673,-0.031167,20.309983,-37.883625,59.53867,0.689859,-0.184552,0.665273,0.217824
-9.817759,0.343653,0.456189,0.052887,-0.027374,-0.022887,20.320442,-37.940296,59.547129,0.689777,-0.184626,0.665316,0.217889
-9.81944,0.298032,0.465155,0.066749,-0.022171,-0.012676,20.148215,-38.066604,59.709045,0.689686,-0.184648,0.665388,0.217936
-9.807954,0.295587,0.462914,0.065275,-0.035077,-0.015904,20.427713,-38.11229,59.663342,0.689634,-0.184677,0.66542,0.217983
-9.803295,0.305122,0.48328,0.057631,-0.03861,-0.01619,20.262051,-38.410769,59.604702,0.689588,-0.184719,0.665432,0.218055
-9.816703,0.296783,0.485607,0.060786,-0.038886,-0.014674,20.383307,-38.293492,59.964235,0.689546,-0.184752,0.665445,0.218121
-9.786656,0.294582,0.519515,0.07777,-0.028028,-0.017998,20.401954,-38.437073,59.792264,0.689501,-0.184755,0.665488,0.218126
-9.764095,0.309853,0.51499,0.076203,-0.029475,-0.017914,20.417103,-38.420118,59.631159,0.68946,-0.184756,0.665527,0.218137
-9.778486,0.339042,0.517139,0.077622,-0.017893,-0.01614,20.548764,-38.590139,59.784424,0.689378,-0.184752,0.665609,0.218148
-9.813504,0.354401,0.496652,0.065167,-0.022087,-0.015918,20.242118,-38.26535,59.774054,0.689296,-0.184776,0.665673,0.218194
-9.797899,0.374317,0.478604,0.052796,-0.025151,-0.015994,20.08929,-38.414637,59.734104,0.689209,-0.18483,0.665721,0.218275
-9.755205,0.29731,0.460762,0.055924,-0.015962,-0.014653,20.093586,-38.265327,59.760601,0.6891,-0.184889,0.665797,0.218339
-9.772883,0.266079,0.519354,0.055983,-0.019219,-0.009753,20.094045,-38.577026,59.725831,0.689001,-0.184934,0.665861,0.218417
-9.83274,0.311175,0.49694,0.059203,-0.021488,-0.011725,20.083181,-38.444666,59.913439,0.688911,-0.184971,0.665922,0.218484
-9.785669,0.34316,0.474244,0.054403,-0.017386,-0.006385,20.260751,-38.408902,59.602105,0.688799,-0.185006,0.665998,0.218577
-9.800299,0.278376,0.56897,0.056013,-0.01476,-0.011639,20.398927,-38.588266,59.768365,0.688695,-0.185057,0.666068,0.218647
-9.814808,0.326251,0.53967,0.052896,-0.008203,-0.005119,20.398927,-38.588266,59.768365,0.68856,-0.185102,0.666164,0.218741
-9.767352,0.363829,0.577969,0.04047,0.000106,0.001335,20.564383,-38.884902,59.588562,0.688388,-0.185169,0.666277,0.21888
-9.757864,0.348066,0.562256,0.020442,-0.004924,-0.000696,20.39851,-38.743196,59.749676,0.688216,-0.185292,0.666359,0.219068
-9.728759,0.395536,0.524036,-0.001223,0.006121,-0.00123,20.248661,-38.74133,59.733615,0.687997,-0.185484,0.666454,0.219304
-9.710795,0.399,0.523923,-0.009061,0.008045,-0.007706,20.261634,-38.565688,59.586015,0.687773,-0.185716,0.666543,0.219541
-9.807311,0.43732,0.580222,-0.021406,0.015735,-0.00816,20.096632,-38.580773,59.731036,0.68752,-0.185988,0.666641,0.219804
-9.850762,0.43345,0.584681,-0.041437,0.007764,-0.005102,19.961938,-38.561941,59.553879,0.687271,-0.1863,0.666703,0.220133
-9.790907,0.412108,0.566725,-0.073918,0.012429,-0.010627,19.945484,-38.577027,59.712372,0.68699,-0.186718,0.666745,0.220529
-9.739208,0.310943,0.530652,-0.095667,0.020595,-0.017474,19.823844,-38.849201,59.334172,0.686676,-0.18722,0.666785,0.220956
-9.662679,0.243965,0.4564,-0.109537,0.021014,0.002175,19.958528,-38.868032,59.511314,0.686334,-0.187709,0.666829,0.221471
-9.658683,0.287548,0.346115,-0.12027,0.019226,0.008449,19.944233,-39.041817,59.656306,0.685983,-0.188209,0.666863,0.222032
-9.750719,0.306851,0.318942,-0.094048,0.01927,0.00234,19.84158,-38.836,59.178273,0.685655,-0.188654,0.666916,0.222508
-9.856196,0.305939,0.282745,-0.070906,0.021167,0.007759,20.125282,-39.166531,59.334123,0.685334,-0.189025,0.666998,0.222937
-9.899384,0.283912,0.271437,-0.060075,0.017936,0.006302,19.990181,-39.302618,59.138294,0.68503,-0.189368,0.667079,0.223336
-9.877336,0.335763,0.217397,-0.04463,0.01963,0.009847,19.839046,-39.298872,59.119631,0.68473,-0.189662,0.667181,0.223703
-9.840129,0.315567,0.168012,-0.042983,0.017554,0.0096,20.144786,-39.467003,59.146004,0.684436,-0.189951,0.667279,0.224066
-9.8124,0.301525,0.197325,-0.019764,0.012986,0.019945,19.842063,-39.614445,59.089984,0.684161,-0.190147,0.667392,0.224399
-9.850541,0.247387,0.255809,0.001866,0.008393,0.022082,20.00838,-39.601194,58.94758,0.683914,-0.190276,0.667514,0.224684
-9.902009,0.302106,0.219624,0.025052,-0.004131,0.021094,20.157353,-39.446198,58.97979,0.683715,-0.190336,0.667623,0.224913
-9.886943,0.360871,0.161072,0.02509,-0.010547,0.021148,20.022669,-39.427367,58.802649,0.683531,-0.190389,0.667717,0.225148
-9.836033,0.328321,0.183653,0.026673,-0.016961,0.021227,19.703945,-39.43496,58.923802,0.683366,-0.190433,0.667794,0.225382
-9.823836,0.289824,0.233267,0.046759,-0.012284,0.021412,19.872401,-39.580451,58.767861,0.683206,-0.190429,0.6679,0.225559
-9.79492,0.327157,0.253438,0.054432,-0.018181,0.023531,19.851678,-39.744708,58.899953,0.683065,-0.190392,0.667998,0.225726
-9.754212,0.343885,0.296148,0.05282,-0.022556,0.022176,19.680687,-39.595403,59.050717,0.682937,-0.190357,0.668081,0.225896
-9.751979,0.37668,0.33462,0.056008,-0.018337,0.02346,19.248859,-39.576728,58.846559,0.682802,-0.190312,0.668176,0.226059
-9.754869,0.42464,0.368448,0.042189,-0.028171,0.021568,19.368351,-39.612555,59.184746,0.682686,-0.190297,0.668231,0.226262
-9.807667,0.418113,0.350284,0.034425,-0.031036,0.023318,19.382272,-39.593647,59.02112,0.682569,-0.190296,0.668273,0.226491
-9.865192,0.42554,0.300622,0.037439,-0.022818,0.025051,19.397456,-39.576653,58.860088,0.68243,-0.190291,0.668342,0.226711
-9.816599,0.371807,0.278017,0.054372,-0.028812,0.02235,19.54434,-39.729549,58.852362,0.682321,-0.190246,0.668409,0.226879
-9.780619,0.307046,0.298593,0.056154,-0.037743,0.023527,19.703111,-39.744796,58.886427,0.682238,-0.19019,0.668452,0.22705
-9.799634,0.354988,0.339118,0.079325,-0.037752,0.022241,19.551558,-39.895969,58.849077,0.682176,-0.190072,0.668512,0.227157
-9.812145,0.409106,0.316491,0.079246,-0.034191,0.02406,19.516111,-39.92229,59.160875,0.682101,-0.18995,0.668585,0.22727
-9.846134,0.377329,0.390702,0.080656,-0.022718,0.020869,19.395355,-39.884532,58.820151,0.682005,-0.189844,0.668681,0.227361
-9.874974,0.475606,0.44027,0.060619,-0.029605,0.007259,19.380171,-39.901537,58.981175,0.681931,-0.189808,0.668727,0.227479
-9.753017,0.586647,0.622768,-0.024232,-0.065073,-0.011825,19.226533,-39.893945,58.957371,0.681897,-0.190022,0.668593,0.227795
-9.659527,0.650076,0.677148,-0.108907,-0.088309,-0.008496,18.930562,-39.896068,58.932904,0.681855,-0.190436,0.668327,0.228357
-9.64152,0.632582,0.604865,-0.173886,-0.095468,-0.002366,19.394088,-39.882609,58.817586,0.681776,-0.191001,0.667989,0.22911
-9.727298,0.438094,0.55098,-0.21384,-0.097779,0.009685,19.283036,-40.015153,58.478656,0.681661,-0.19164,0.667617,0.23
-9.826782,0.213247,0.472126,-0.216924,-0.088439,0.01102,19.452335,-40.317539,58.306544,0.681518,-0.192293,0.667267,0.230894
-9.795119,0.204894,0.357103,-0.201778,-0.0556,0.016344,19.598389,-40.313532,58.315034,0.681294,-0.192921,0.667022,0.231738
-9.722935,0.276394,0.352673,-0.157086,-0.034516,0.025162,19.463294,-40.449614,58.119213,0.68104,-0.193426,0.666879,0.232472
-9.739744,0.309891,0.393069,-0.127942,-0.009622,0.040618,19.443036,-40.458866,58.270058,0.68073,-0.193835,0.666839,0.233153
-9.714201,0.455248,0.478779,-0.11412,0.014138,0.040445,19.596698,-40.4665,58.293804,0.680368,-0.194229,0.666875,0.233779
-9.747538,0.53491,0.528255,-0.120367,0.022453,0.046999,19.459504,-40.91043,58.058086,0.679973,-0.194629,0.666932,0.234433
-9.740802,0.537077,0.433654,-0.13273,0.024115,0.0501,19.610622,-40.914176,58.076747,0.67956,-0.195056,0.666983,0.235126
-9.717427,0.476658,0.3862,-0.145228,0.02969,0.05687,19.756617,-40.910078,58.085268,0.679117,-0.195504,0.667043,0.235865
-9.735164,0.440894,0.323154,-0.142171,0.039087,0.05343,19.908165,-41.225551,58.069095,0.678654,-0.195961,0.667127,0.236579
-9.696962,0.521055,0.316655,-0.159046,0.044765,0.055937,19.914599,-41.235415,58.081766,0.67816,-0.196461,0.667212,0.237339
-9.734368,0.540718,0.361447,-0.16384,0.048902,0.06294,18.960571,-41.003498,57.449081,0.677645,-0.196959,0.667308,0.238127
-9.766837,0.566176,0.347896,-0.187025,0.053905,0.072467,19.000454,-41.060432,57.454899,0.677089,-0.197498,0.667403,0.238997
-9.813617,0.63977,0.399698,-0.19468,0.049071,0.078912,18.610581,-41.136827,57.572578,0.676532,-0.198036,0.667481,0.239906
-9.868539,0.636077,0.388377,-0.219316,0.036283,0.081938,18.595045,-41.476121,57.45626,0.675987,-0.198619,0.667503,0.240898
-9.783169,0.587117,0.273588,-0.311867,0.013828,0.085617,18.73019,-41.62262,57.448817,0.675423,-0.199415,0.667381,0.242157
-9.658218,0.477754,0.178983,-0.369145,0.017336,0.079999,18.742495,-41.75645,57.264186,0.674808,-0.20038,0.667208,0.243548
-9.690437,0.356254,0.239858,-0.356756,0.023558,0.084918,18.458808,-41.892747,57.054749,0.67418,-0.201304,0.667065,0.244913
-9.699617,0.377614,0.244485,-0.34585,0.026594,0.098021,18.629237,-42.197205,56.885056,0.673538,-0.202169,0.666948,0.246281
-9.734191,0.368273,0.188002,-0.342813,0.024081,0.108324,18.473589,-42.4972,56.821578,0.672894,-0.202995,0.666833,0.24767
-9.817073,0.380362,0.14728,-0.327408,0.022884,0.11209,18.65469,-42.621618,56.499741,0.672259,-0.20377,0.666732,0.249028
-9.836503,0.462877,0.106799,-0.314992,0.026007,0.122003,18.505651,-42.776805,56.467336,0.671614,-0.204488,0.666657,0.250377
-9.830229,0.508427,0.109101,-0.314953,0.024245,0.121919,18.221119,-42.756264,56.27404,0.670971,-0.205205,0.666575,0.251727
-9.85694,0.470797,0.100151,-0.318047,0.035189,0.123237,18.389048,-43.523491,56.045733,0.670295,-0.205936,0.666518,0.253079
-9.756654,0.353802,0.010201,-0.322596,0.032289,0.14462,18.255604,-43.50672,55.871055,0.6696,-0.20662,0.666464,0.2545
-9.723335,0.262263,-0.03711,-0.300953,0.026128,0.148429,18.404665,-43.81821,55.849904,0.668932,-0.207231,0.666417,0.255878
-9.788053,0.299563,-0.052947,-0.26695,0.024636,0.152296,18.286447,-43.784299,55.514326,0.66829,-0.207742,0.666402,0.257179
-9.892822,0.424234,-0.048468,-0.251348,0.011724,0.162391,18.288481,-43.943347,55.500492,0.667682,-0.208172,0.666375,0.258475
-9.97718,0.540987,-0.059867,-0.243625,0.007079,0.162653,18.151748,-44.232258,55.283568,0.667092,-0.208576,0.666343,0.259755
-9.935244,0.628302,-0.091447,-0.259053,-0.003669,0.170977,18.467565,-44.375393,55.138918,0.666506,-0.208987,0.666272,0.261106
-9.85166,0.559213,-0.118344,-0.266708,-0.008504,0.17742,18.031476,-44.506064,54.908203,0.665919,-0.209395,0.666185,0.262496
-9.789485,0.397688,-0.172249,-0.246541,-0.013681,0.174273,18.050776,-44.340257,54.773219,0.665363,-0.209754,0.6661,0.263829
-9.711336,0.397017,-0.109007,-0.190899,-0.007481,0.176565,18.051541,-44.964131,54.703257,0.664833,-0.209969,0.66609,0.265017
-9.722147,0.508367,-0.050453,-0.126012,-0.007405,0.1776,17.749258,-44.956638,54.66593,0.664354,-0.210013,0.666147,0.266039
-9.733386,0.639879,-0.007713,-0.081203,-0.01536,0.171857,17.445781,-44.947034,54.626213,0.663937,-0.209946,0.666225,0.266935
-9.780758,0.71188,0.037068,-0.056645,-0.016361,0.162819,17.288708,-44.932734,54.595607,0.663552,-0.209837,0.666318,0.267745
-9.821238,0.707567,0.005796,-0.047038,-0.040058,0.155848,17.296603,-45.10244,54.593639,0.663243,-0.209697,0.666353,0.268531
-9.857547,0.511917,0.028111,-0.025576,-0.033057,0.153218,17.173214,-45.214967,54.229809,0.662936,-0.209517,0.666426,0.269247
-9.767337,0.341679,0.080239,0.027012,-0.017711,0.155088,17.34632,-45.369169,54.083149,0.66263,-0.209214,0.666595,0.269818
-9.666669,0.32999,0.197304,0.091734,-0.010623,0.154804,17.308241,-45.545743,54.371943,0.66236,-0.208751,0.666849,0.270213
-9.622488,0.281127,0.30764,0.133282,0.007422,0.157172,17.305865,-45.541476,54.367185,0.662074,-0.208193,0.667194,0.270492
-9.579868,0.34654,0.316739,0.191921,0.023335,0.156219,17.155929,-45.539864,54.350902,0.661795,-0.207502,0.667641,0.270603
-9.52072,0.356445,0.276167,0.20716,0.049405,0.159756,17.170431,-45.36562,54.206379,0.661455,-0.206789,0.668175,0.270662
-9.620323,0.290437,0.228846,0.237923,0.088018,0.177945,16.989187,-45.241388,54.528078,0.66102,-0.20599,0.668854,0.270657
-9.83831,0.004825,0.305076,0.316437,0.117346,0.174284,16.683446,-45.22753,54.483602,0.660574,-0.205028,0.669689,0.270413
-9.845349,-0.140548,0.293764,0.41206,0.140143,0.179032,16.666668,-44.930722,54.677022,0.660138,-0.20383,0.670685,0.269913
-9.619592,0.229165,0.030622,0.517215,0.147907,0.19184,16.368656,-45.086581,54.630584,0.659749,-0.202334,0.671821,0.269163
-9.405797,0.618426,-0.047998,0.629839,0.175414,0.198377,16.470428,-45.135576,55.124641,0.659366,-0.200559,0.673148,0.268112
-9.500096,0.970383,-0.023151,0.687009,0.190526,0.182202,16.307866,-45.00046,55.292805,0.659001,-0.198693,0.674556,0.266856
-9.486923,1.273161,-0.106663,0.674557,0.19165,0.20558,16.271619,-44.557453,55.65612,0.658595,-0.196796,0.675968,0.26569
-9.232913,1.294756,-0.178388,0.606733,0.17682,0.204421,15.95519,-44.56924,55.782141,0.658172,-0.195061,0.677266,0.26471
-9.407588,1.032502,-0.433022,0.495683,0.150277,0.182796,16.076118,-44.452423,56.141359,0.657754,-0.19364,0.678362,0.263987
-9.598523,0.895416,-0.485294,0.458519,0.131861,0.179643,15.767471,-44.277478,56.107995,0.657357,-0.192304,0.679367,0.263367
-9.961596,0.992295,-0.418017,0.46799,0.105676,0.169876,15.871082,-44.485554,56.588275,0.657045,-0.190942,0.680305,0.262715
-10.293979,1.46256,-0.359813,0.443515,0.062159,0.161567,15.687889,-44.202162,56.923916,0.656836,-0.189618,0.681098,0.262139
-10.459788,1.987261,-0.188759,0.320268,0.007178,0.153334,15.689848,-43.894421,56.963778,0.656689,-0.188575,0.681616,0.261912
-10.550096,2.079679,0.122042,0.164574,-0.053052,0.12641,15.253183,-44.180007,56.714426,0.656615,-0.187936,0.681801,0.262076
-10.525684,1.829433,0.173838,0.038204,-0.110783,0.124973,15.387171,-44.041841,56.907767,0.656604,-0.187567,0.681706,0.262615
-10.465838,1.770976,-0.101043,-0.018785,-0.163957,0.094991,15.049541,-43.748489,57.217255,0.656722,-0.187371,0.681395,0.263266
-10.307367,1.446881,-0.253956,0.015343,-0.183953,0.073975,14.917068,-43.733795,57.045132,0.656938,-0.187125,0.681053,0.263786
-10.395841,1.110148,-0.019776,0.140546,-0.201958,0.052937,14.917068,-43.733795,57.045132,0.657318,-0.186596,0.680776,0.26393
-10.432495,1.251123,-0.049145,0.230418,-0.263478,0.016888,15.083125,-43.875292,56.884155,0.657962,-0.185869,0.680407,0.263789
-10.127963,1.272211,-0.098247,0.338833,-0.303012,-0.012809,15.372666,-43.749167,57.106109,0.65882,-0.184901,0.680026,0.263311
-9.898714,1.378791,-0.116201,0.451352,-0.28839,-0.03725,15.233553,-43.722071,56.919012,0.659744,-0.183723,0.679778,0.26246
-9.834275,1.546243,0.253374,0.551617,-0.258586,-0.057621,15.657072,-43.457794,57.334277,0.660679,-0.18237,0.679693,0.261269
-10.02355,1.341584,0.597644,0.628548,-0.232597,-0.074448,15.502312,-43.136056,57.34296,0.661615,-0.18089,0.679738,0.25981
-9.960969,1.178056,0.800577,0.696469,-0.210792,-0.085424,15.6243,-43.0212,57.704743,0.662548,-0.179284,0.679896,0.258125
-9.788126,0.81462,0.86384,0.788895,-0.169235,-0.095889,15.910086,-43.043775,57.900523,0.663442,-0.177507,0.680243,0.256137
-9.699477,0.578077,0.834787,0.872248,-0.135567,-0.078562,16.200555,-42.60772,58.15998,0.66428,-0.175501,0.680766,0.253946
-9.321456,0.567996,0.718099,0.91364,-0.074618,-0.073536,15.985579,-42.356491,58.815177,0.664973,-0.173432,0.681486,0.251615
-9.008429,0.739102,0.725011,0.860466,0.014353,-0.066465,16.132991,-42.042373,58.860934,0.665379,-0.171569,0.682381,0.24938
-9.145167,1.301655,0.880282,0.764336,0.07887,-0.047007,16.268493,-41.751399,59.075424,0.665525,-0.169964,0.683358,0.247407
-9.47198,1.553733,0.963231,0.566332,0.126001,-0.018995,16.369945,-41.488608,59.604229,0.665383,-0.168844,0.684281,0.246003
-9.435816,1.423845,0.787572,0.349866,0.163148,0.000428,16.656972,-41.046496,59.856055,0.664978,-0.168268,0.685102,0.245203
-9.309221,1.074739,0.641295,0.235337,0.205261,0.023093,16.656972,-41.046496,59.856055,0.664364,-0.16797,0.685937,0.24474
-9.388172,0.980388,0.508268,0.216588,0.235909,0.024291,15.897182,-40.677577,59.707275,0.663653,-0.167748,0.686833,0.244309
-9.368036,1.129301,0.249153,0.239624,0.254293,0.04292,15.983761,-40.600066,59.646326,0.662887,-0.167432,0.68781,0.243853
-9.428132,1.323902,0.107305,0.270364,0.300696,0.057638,15.764024,-40.705257,59.966148,0.662001,-0.167042,0.688946,0.243321
-9.475352,1.415661,0.008184,0.267162,0.326307,0.062244,15.280687,-40.757344,60.149271,0.661038,-0.166671,0.690146,0.242792
-9.511975,1.43065,-0.04128,0.248638,0.343782,0.076414,15.286882,-40.58123,60.009798,0.660001,-0.166326,0.69138,0.242338
-9.611942,1.34915,0.012457,0.234565,0.34787,0.081615,15.097338,-40.597901,60.294932,0.658937,-0.166006,0.692613,0.241932
-9.523745,1.254498,-0.163191,0.196025,0.33391,0.097778,14.761139,-40.618621,60.571859,0.657868,-0.165729,0.693783,0.24168
-9.416246,1.253119,-0.413068,0.166756,0.327483,0.105547,14.594671,-40.631908,60.714289,0.656788,-0.165499,0.694912,0.241531
-9.546938,1.2789,-0.55945,0.123672,0.318783,0.104538,14.296735,-40.632224,60.687566,0.655703,-0.165374,0.695976,0.2415
-9.735565,1.191307,-0.54609,0.0758,0.321886,0.108617,14.298221,-40.479257,60.708903,0.654574,-0.165364,0.697003,0.241608
-10.033475,0.921594,-0.402193,0.052703,0.317107,0.118127,14.298457,-40.791052,60.674176,0.653432,-0.165382,0.698001,0.241805
-10.028426,0.873601,-0.559911,0.048224,0.286856,0.121719,14.010734,-41.076354,60.438348,0.652365,-0.165373,0.698918,0.242042
-9.854038,0.975034,-0.841343,0.060596,0.280685,0.125379,14.128319,-40.953387,60.790003,0.651318,-0.165317,0.699833,0.242259
-9.884544,1.013539,-0.782896,0.093117,0.258655,0.129592,13.975075,-40.945713,60.766035,0.650346,-0.165145,0.700724,0.24241
-9.845178,1.164037,-0.832196,0.073171,0.2628,0.135368,13.662446,-40.653265,60.937841,0.649344,-0.165011,0.701609,0.242629
-9.650572,1.253922,-0.888697,-0.010523,0.267692,0.151448,13.484249,-41.111661,60.997629,0.648258,-0.16505,0.702436,0.243113
-9.445519,1.054711,-0.942319,-0.08,0.286143,0.153,13.203642,-41.098938,60.81516,0.647073,-0.165277,0.703243,0.24378
-9.466662,0.939045,-0.865796,-0.094069,0.310452,0.157641,13.035046,-41.108305,60.952302,0.645807,-0.165551,0.704099,0.244481
-9.438658,1.088362,-0.370203,-0.098783,0.323242,0.155803,12.899961,-41.244377,60.756497,0.644503,-0.165852,0.704979,0.245181
-9.438743,1.597432,0.163779,-0.086417,0.347604,0.190277,12.600737,-41.24281,60.727132,0.643106,-0.166049,0.705951,0.245918
-9.379117,2.30564,0.089319,-0.102056,0.369792,0.223369,12.612753,-41.374724,60.539388,0.641602,-0.166214,0.706983,0.246767
-9.124467,2.445498,0.080708,-0.139072,0.375801,0.227394,12.27977,-41.713165,60.789567,0.640052,-0.166466,0.707994,0.247723
-9.22495,2.285938,0.197738,-0.177724,0.385742,0.243256,11.993961,-41.690589,60.593771,0.638431,-0.16678,0.709,0.248817
-9.318182,2.38439,0.2854,-0.216433,0.394321,0.256019,11.705796,-41.818932,60.374012,0.636745,-0.167162,0.709994,0.250044
-9.283535,2.212238,-0.059072,-0.251889,0.405723,0.28652,11.55757,-41.821176,60.363263,0.63497,-0.167559,0.710997,0.251435
-8.98373,1.7697,-0.198405,-0.307597,0.432119,0.321846,11.254464,-42.12352,60.288562,0.633047,-0.168021,0.71203,0.25305
-8.884189,1.421813,-0.207172,-0.367945,0.470651,0.34675,10.818648,-42.722961,60.007213,0.630947,-0.168599,0.713108,0.254867
-8.896697,1.141565,-0.473202,-0.410026,0.518629,0.379319,10.948642,-42.73164,60.171226,0.628646,-0.169237,0.714278,0.256846
-8.862847,0.747032,-0.473028,-0.445653,0.557226,0.406271,10.513659,-43.021256,59.927264,0.626181,-0.169925,0.715515,0.258963
-9.338585,0.117935,0.019616,-0.384301,0.615887,0.417116,9.920688,-43.447728,59.627628,0.623573,-0.170489,0.716956,0.260892
-10.108277,0.009501,0.446788,-0.282616,0.660771,0.41174,9.617617,-43.750038,59.552935,0.620905,-0.170864,0.718597,0.26249
-10.260604,0.556675,0.698948,-0.173305,0.731497,0.421071,8.862051,-44.043191,59.424861,0.618094,-0.171018,0.720518,0.263753
-9.898175,0.869566,1.165743,-0.040791,0.810137,0.438778,8.562768,-43.887014,59.414023,0.615124,-0.170881,0.722768,0.26463
-9.580288,1.459551,1.318936,0.055826,0.903389,0.468434,7.93472,-44.337247,59.423581,0.611914,-0.170521,0.72535,0.26524
-9.423904,2.170716,1.06022,0.039856,1.01706,0.486684,7.619738,-44.198297,59.573814,0.60834,-0.170262,0.728185,0.265857
-9.443173,2.365603,1.024066,-0.053479,1.116891,0.492855,7.013245,-44.334037,59.475275,0.6044,-0.170307,0.731148,0.266682
-9.717192,2.582282,0.897495,-0.094249,1.205712,0.500063,6.070993,-44.49033,59.653696,0.600155,-0.170516,0.734263,0.267574
-9.879348,2.562913,0.755543,-0.088373,1.276151,0.514158,5.619498,-44.640281,59.586869,0.59568,-0.170739,0.737537,0.268428
-10.101434,2.513598,0.297948,-0.07184,1.349059,0.532246,5.013205,-44.775977,59.488332,0.590966,-0.170942,0.740985,0.269218
-10.406323,2.675404,0.022895,-0.033603,1.424214,0.533672,4.576908,-45.063665,59.241743,0.586038,-0.171126,0.744621,0.269841
-10.36379,2.73546,0.160259,0.026123,1.504974,0.542447,3.786281,-45.380629,59.422769,0.580882,-0.171226,0.748482,0.270245
-10.363152,2.708772,0.182873,0.065898,1.57831,0.533976,2.880102,-45.672207,59.278648,0.575523,-0.171331,0.752512,0.270453
-10.337303,2.970983,-0.294387,0.088911,1.640283,0.54809,1.977417,-45.507648,59.200942,0.569954,-0.1714,0.756681,0.270572
-10.797162,2.305585,-0.560798,0.092909,1.739104,0.570838,1.354658,-45.501343,59.276981,0.564043,-0.171488,0.76105,0.270649
-11.67414,1.225658,-1.023445,0.158812,1.838906,0.590824,0.582264,-45.809668,59.307369,0.557826,-0.171468,0.765678,0.270491
-12.627657,-0.16047,-2.117061,0.363699,1.931725,0.625112,-0.662044,-46.113229,59.429827,0.551397,-0.170986,0.7707,0.269717
-13.287667,-1.375593,-2.849826,0.701445,2.03681,0.649501,-1.567921,-45.780952,59.355234,0.544811,-0.169801,0.776263,0.267888
-14.219697,-2.123663,-2.803499,1.153786,2.091979,0.661229,-2.658234,-45.629996,59.560211,0.538298,-0.167661,0.782358,0.264652
-15.242872,-1.574964,-2.851944,1.361933,2.147935,0.637693,-3.764955,-45.337092,59.939701,0.531721,-0.165197,0.788692,0.260668
-15.749082,-0.807322,-2.480865,1.244489,2.142816,0.621063,-4.870756,-44.734431,60.356525,0.525046,-0.163005,0.794804,0.256987
-15.637917,-1.285539,-1.773431,0.963502,2.125859,0.663096,-5.977016,-44.443678,60.738612,0.518153,-0.161226,0.80055,0.254252
-15.33455,-1.771705,-2.065631,0.682612,2.126813,0.69262,-7.06343,-43.53272,61.055741,0.511005,-0.159911,0.805966,0.252431
-15.387904,-3.512533,-1.516245,0.585159,2.12973,0.721401,-7.986993,-43.205216,61.126212,0.503715,-0.158689,0.811242,0.250951
-15.337871,-4.216215,-1.457525,0.674889,2.116475,0.712786,-8.8921,-42.722102,61.075664,0.496488,-0.157291,0.816505,0.249157
-14.778266,-3.735473,0.076932,0.978786,2.161154,0.669562,-9.966034,-42.39508,61.132824,0.489303,-0.15547,0.822051,0.24626
-14.784113,-2.544158,1.034246,1.162147,2.234607,0.647032,-10.586517,-42.240284,61.23532,0.481966,-0.153427,0.827818,0.242662
-14.377847,-1.490005,1.735341,1.229756,2.304144,0.617394,-11.103295,-41.52086,61.91472,0.474422,-0.151402,0.833674,0.238723
-14.300225,-1.562074,2.818823,1.317021,2.416108,0.584945,-12.041421,-40.904973,62.18898,0.46654,-0.149407,0.839703,0.234344
-14.303419,-1.113742,3.638972,1.443069,2.538012,0.540689,-12.541446,-40.019232,62.734244,0.458312,-0.147421,0.845935,0.229371
-14.657741,-1.092951,4.767045,1.532014,2.629271,0.515062,-13.463117,-39.388304,62.849992,0.449792,-0.14542,0.852277,0.223973
-14.954466,-1.654668,4.56153,1.651859,2.70003,0.48379,-14.417021,-38.627093,63.293005,0.441064,-0.143354,0.858701,0.218047
-15.007579,-0.109596,4.442284,1.815021,2.831013,0.48643,-14.949955,-37.616244,64.174106,0.431912,-0.141084,0.865349,0.211468
-15.603909,-1.739977,4.256744,1.749363,2.95538,0.566032,-15.73518,-36.534249,64.514419,0.422159,-0.138734,0.872039,0.205139
-16.243341,-1.171651,1.174582,1.665105,3.109725,0.591449,-15.735268,-36.53605,64.517247,0.411734,-0.136533,0.878764,0.199016
-16.826441,0.274102,3.345503,1.804936,3.257798,0.622043,-18.872943,-33.98826,65.202657,0.400766,-0.134089,0.88567,0.192342
-18.69989,1.770669,5.677103,1.503288,3.356663,0.745699,-19.001834,-33.853038,65.177168,0.389118,-0.131735,0.892376,0.186812
-19.599259,2.432838,4.493806,0.557411,3.202848,0.757718,-20.467144,-32.855056,66.159904,0.377435,-0.130639,0.897989,0.18464
-18.960818,1.637391,3.473993,-0.421498,2.779359,0.562019,-21.495375,-32.425116,66.148724,0.366822,-0.131347,0.902035,0.185801
-16.899234,2.464861,3.178695,-1.161117,2.409551,0.457561,-22.39781,-32.697586,65.984051,0.357162,-0.133198,0.904848,0.189586
-14.743478,4.596734,0.038654,-1.744906,2.641331,0.447861,-22.971023,-33.118829,65.539291,0.346336,-0.136051,0.90742,0.195272
-14.033811,4.115938,-4.950074,-2.340439,3.026144,0.453471,-23.376761,-33.835202,64.911607,0.333755,-0.139956,0.909878,0.202834
-13.94952,3.563377,-11.209872,-2.822094,2.969735,0.459504,-24.237907,-35.161638,64.156068,0.321021,-0.144387,0.911654,0.212096
-13.633235,1.400232,-3.395366,-2.270295,2.621104,0.335513,-25.066122,-36.61101,63.062141,0.309869,-0.148245,0.913168,0.219383
-12.263266,-2.105296,-4.459185,-1.403986,2.424913,0.302636,-25.625567,-37.64061,62.389555,0.299897,-0.15098,0.91502,0.223619
-12.117732,1.261993,-1.981261,-0.568388,1.889671,0.151509,-26.502813,-38.827311,61.81112,0.292434,-0.152794,0.916798,0.224985
-10.506193,-3.938435,5.994704,0.537442,1.316232,-0.208722,-26.824136,-39.611411,61.841558,0.287989,-0.154124,0.918633,0.222311
-9.512678,-3.425739,4.657586,0.638138,0.885584,-0.559329,-26.889233,-39.975811,62.429883,0.285446,-0.156221,0.919835,0.219134
-7.892176,0.410333,4.880217,0.730387,0.376236,-0.857099,-26.721144,-40.113646,63.748946,0.285039,-0.158845,0.920347,0.2156
-7.226678,3.194823,3.592265,0.490269,-0.136692,-1.142925,-26.215035,-40.678087,64.709999,0.286561,-0.162328,0.919889,0.212926
-7.191417,3.937713,2.540204,0.091259,-0.672774,-1.381439,-25.305451,-41.453783,66.183473,0.289946,-0.166664,0.918322,0.211752
-6.991663,2.696304,2.110287,-0.324247,-1.234617,-1.514366,-24.111963,-42.107049,67.885912,0.295173,-0.171476,0.915647,0.212274
-6.804874,1.749494,2.547502,-0.616681,-1.717297,-1.640878,-22.903193,-43.51582,69.330628,0.302013,-0.176664,0.91202,0.214003
-6.804762,1.167422,2.484619,-0.767443,-2.124949,-1.833908,-20.65367,-44.819449,71.095612,0.31033,-0.182359,0.907554,0.2163
-6.757385,0.855684,2.43697,-0.731691,-2.527481,-2.041426,-18.08311,-46.397498,72.661192,0.32023,-0.188379,0.90235,0.218473
-6.530053,0.353278,2.103885,-0.627677,-2.92116,-2.213766,-15.078706,-48.178036,74.453833,0.331681,-0.194505,0.896447,0.220314
-6.412937,0.039948,1.626736,-0.478934,-3.266612,-2.346302,-11.635617,-49.531825,76.533865,0.344494,-0.200561,0.889921,0.221674
-6.661475,-0.071269,1.60143,-0.231611,-3.616161,-2.465001,-7.421722,-51.016594,78.48986,0.358727,-0.206341,0.882809,0.22223
-7.271745,0.170081,1.751787,0.051358,-3.940946,-2.567189,-2.920472,-52.387636,80.687457,0.374287,-0.211732,0.875133,0.22186
-8.046393,0.659295,1.570882,0.260495,-4.30543,-2.640453,2.338966,-53.315321,83.038419,0.391196,-0.216676,0.866732,0.22089
-8.541156,1.344556,0.923723,0.260979,-4.673079,-2.675331,8.567328,-54.190502,84.845765,0.409222,-0.221332,0.857387,0.220086
-8.934284,1.797079,-0.21434,0.135993,-4.976659,-2.702859,15.098798,-54.610811,86.749805,0.427992,-0.225917,0.847032,0.219819
-9.456509,2.158273,-1.212921,0.015302,-5.233987,-2.750537,22.147816,-54.669719,88.109312,0.447334,-0.230527,0.835676,0.219989
-9.962587,2.158627,-1.717774,-0.079105,-5.449432,-2.796891,29.847686,-54.581001,89.279883,0.467091,-0.235144,0.823366,0.220459
-10.58131,2.443869,-1.851512,-0.143054,-5.640728,-2.842517,38.403087,-54.070758,89.433356,0.487172,-0.239722,0.81013,0.2211
-11.30367,2.388275,-1.863325,-0.174142,-5.845445,-2.848148,46.925496,-53.023757,88.708317,0.507577,-0.244052,0.795972,0.221884
-11.860487,2.991333,-2.030619,-0.202434,-6.016596,-2.823986,55.941569,-51.620557,87.581822,0.528135,-0.248056,0.780956,0.222822
-12.496641,3.541154,-2.195743,-0.235377,-6.182796,-2.793314,64.804281,-49.764285,85.029126,0.548784,-0.251722,0.765066,0.223933
-13.05759,3.535881,-2.022934,-0.25928,-6.31856,-2.772645,73.930764,-47.494127,81.41965,0.56941,-0.25508,0.748345,0.225136
-13.706688,3.579621,-2.192611,-0.224439,-6.450322,-2.717946,82.837388,-44.831438,77.018254,0.589993,-0.257899,0.730871,0.226326
-14.271686,4.105656,-2.55138,-0.18472,-6.603689,-2.616659,91.258879,-41.740604,71.473887,0.610522,-0.260009,0.712633,0.227622
-14.814056,4.505129,-3.148767,-0.146366,-6.773673,-2.518716,99.474255,-38.262646,65.145645,0.631004,-0.261399,0.693573,0.229042
-15.151083,4.309799,-3.854305,-0.197857,-6.922781,-2.38896,106.402609,-34.494414,57.700653,0.651219,-0.262228,0.673677,0.230889
-15.469543,3.248252,-4.235309,-0.170746,-7.025823,-2.260138,112.80491,-30.811353,49.536868,0.671086,-0.26234,0.653126,0.23291
-15.084572,1.37747,-5.343089,-0.278569,-7.024101,-2.096307,118.57103,-27.31522,40.134896,0.690142,-0.262105,0.632117,0.235444
-14.848217,-0.330477,-5.811383,-0.001507,-6.856761,-2.091567,122.832229,-23.763677,30.384464,0.708516,-0.261057,0.611318,0.236948
-15.490217,-1.772278,-6.012434,0.783154,-6.616365,-2.263341,126.186152,-20.208491,20.683927,0.726738,-0.258272,0.591273,0.235678
-17.018411,-0.279214,-6.219196,1.608117,-6.402252,-2.356144,128.304478,-16.462799,10.848956,0.744846,-0.253364,0.572064,0.231848
-17.553089,2.322787,-6.305368,2.066009,-6.226258,-2.313917,129.035144,-12.732979,1.323969,0.762432,-0.247005,0.553407,0.226775
-17.718203,3.065038,-6.546582,2.057336,-6.038144,-2.221219,128.786982,-9.349805,-7.716945,0.778985,-0.240464,0.535003,0.221656
-17.545795,2.555567,-6.535252,1.806093,-5.862462,-2.123839,127.295796,-6.414597,-16.802434,0.794339,-0.234478,0.516658,0.217048
-17.17624,3.100101,-6.919892,1.566729,-5.545445,-1.966563,125.138728,-3.868928,-25.054926,0.808231,-0.229049,0.498932,0.212992
-16.541917,4.059258,-8.198696,1.277519,-5.156928,-1.722675,122.002478,-1.808282,-32.996971,0.820492,-0.224264,0.482158,0.209815
-14.789119,4.836144,-9.37486,1.006616,-4.684492,-1.36837,118.474698,-0.141198,-40.066456,0.830993,-0.219974,0.466785,0.207782
-12.952677,4.598044,-10.57594,0.893672,-4.04021,-0.982728,114.497787,0.965205,-46.10894,0.839644,-0.2158,0.453596,0.206587
-11.18269,3.910291,-12.159896,0.863371,-3.266108,-0.656674,110.319243,1.858941,-51.559774,0.846449,-0.211726,0.443097,0.205817
-8.431904,3.492368,-13.24299,0.903241,-2.395876,-0.434349,106.291705,2.16092,-55.751622,0.851487,-0.207806,0.435632,0.204966
-5.352542,4.125877,-13.771206,0.826991,-1.445954,-0.201673,102.781168,2.030929,-58.811194,0.854602,-0.20449,0.431425,0.204234
-3.457499,5.729296,-13.694727,0.52544,-0.546746,-0.050381,99.384494,1.541315,-61.422486,0.855819,-0.202638,0.430093,0.203792
-3.895207,7.089252,-13.936123,0.11376,0.399138,0.030935,96.942502,1.24497,-62.913075,0.855052,-0.202778,0.431658,0.203564
-6.01042,7.504454,-13.935928,-0.166406,1.351892,0.215103,94.761743,1.050108,-63.87812,0.852297,-0.204297,0.436318,0.203665
-8.183684,7.979731,-13.185967,-0.344045,2.213979,0.528223,93.441956,0.974785,-64.534682,0.847632,-0.206547,0.443931,0.204411
-10.419247,7.976005,-12.940801,-0.608905,2.926489,0.873143,92.929843,0.647979,-64.294305,0.84114,-0.209621,0.453917,0.206159
-12.259644,9.44285,-12.363873,-1.096757,3.520819,1.292694,92.712107,0.281621,-63.716553,0.832691,-0.213992,0.465716,0.209623
-12.854641,7.829371,-13.614693,-1.528248,3.926676,1.521056,93.347909,0.002789,-62.530107,0.822723,-0.219623,0.478543,0.214217
-15.220623,8.336929,-4.055145,-1.799998,4.2375,1.792652,94.130556,-0.279401,-61.322436,0.811425,-0.225803,0.492207,0.219851
-28.315329,-25.51281,34.822305,-0.052405,3.473718,1.154064,95.658135,-0.147651,-59.661817,0.803445,-0.226948,0.504241,0.220708
-31.519928,-31.605574,30.097675,-0.356682,2.036086,0.722166,96.771765,-0.578259,-58.601793,0.798284,-0.228626,0.511044,0.222052
-9.731065,4.189576,12.964605,-2.056385,1.259951,1.387204,96.771765,-0.578259,-58.601793,0.792496,-0.233581,0.514495,0.229533
-5.965995,7.867448,-5.218632,-1.177086,1.849429,0.887621,96.460396,-0.611356,-56.546703,0.786688,-0.23732,0.520047,0.233137
-10.580907,2.356451,-15.956983,-1.863252,2.361696,1.589662,95.776057,-0.649456,-56.99744,0.778454,-0.242176,0.527127,0.239786
-13.814519,-0.367967,-8.15955,-1.358972,2.619823,1.88487,93.652013,-0.561296,-56.738958,0.76974,-0.245087,0.535644,0.246004
-20.935803,-0.014786,-5.554352,-1.085461,3.00504,1.555432,93.898229,-1.096757,-55.688072,0.760647,-0.248185,0.54516,0.250242
-20.054522,4.716517,-6.614421,-2.95385,3.051626,1.341254,93.886831,-1.512494,-54.596996,0.749655,-0.257274,0.55264,0.257713
-15.993006,4.039735,-7.132604,-4.445447,2.891683,1.212541,94.218239,-1.180496,-53.221928,0.737346,-0.270748,0.557805,0.268088
-14.166648,3.192734,-3.425121,-4.396035,2.720979,1.481271,94.429751,0.115366,-52.06786,0.724838,-0.283189,0.562556,0.279186
-12.000101,1.295963,-2.668257,-2.923738,2.553332,1.816129,95.065968,1.540831,-50.673895,0.713692,-0.290437,0.568597,0.288076
-8.13288,1.857667,-1.758709,-1.466897,2.351273,2.04505,95.396944,1.88931,-49.448277,0.704218,-0.292816,0.575837,0.294529
-5.093516,1.808405,-2.188013,-0.451266,2.191871,1.900407,95.713177,1.293044,-48.178633,0.696316,-0.292496,0.583548,0.298433
-6.53397,4.532454,-5.59106,0.406388,2.048539,1.609129,95.738124,0.255099,-47.158842,0.689974,-0.290303,0.591464,0.299717
-10.228682,9.716453,-4.844765,1.216749,1.89496,1.486902,95.759145,-1.125413,-45.873783,0.684973,-0.285997,0.599711,0.29894
-13.770684,4.582714,-4.497206,1.158398,1.820708,1.513587,95.757879,-2.642134,-44.747754,0.679974,-0.281667,0.607654,0.298421
-14.476359,1.971704,-6.299796,1.001501,1.706032,1.438668,95.639548,-4.158812,-43.656024,0.675093,-0.277764,0.61497,0.298175
-12.063102,-0.779234,-3.614367,1.284463,1.569596,1.131299,95.990045,-5.809617,-42.836108,0.671156,-0.273707,0.621851,0.296537
-11.061956,-0.265015,-1.863279,1.471597,1.461473,0.986703,95.968872,-7.030311,-41.512995,0.66778,-0.269308,0.628486,0.294192
-10.23624,1.957556,-3.135101,1.344343,1.31779,1.030476,95.871529,-8.205609,-40.694963,0.664527,-0.26497,0.634588,0.29239
-10.251858,2.401076,-3.083188,0.75852,1.137828,1.060373,95.916522,-9.711065,-39.740591,0.661042,-0.261859,0.639548,0.292285
-11.04595,2.53409,-2.921763,0.116746,0.978385,0.996574,95.856317,-10.857252,-39.240979,0.657346,-0.260372,0.643273,0.293771
-11.509874,1.820222,-3.888512,-0.321184,0.821625,0.901231,95.948076,-11.697511,-38.685237,0.653689,-0.260062,0.645977,0.296263
-11.368432,1.554835,-3.937913,-0.447065,0.660838,0.8161,95.864977,-12.082786,-37.930185,0.650392,-0.260096,0.648022,0.299011
-11.220634,0.937087,-2.908404,-0.31527,0.531768,0.690322,95.671596,-12.417389,-37.665966,0.64769,-0.259958,0.649754,0.301232
-11.280213,1.24324,-2.4311,0.061942,0.420255,0.53705,95.519106,-12.705002,-37.873863,0.645826,-0.25912,0.651483,0.302217
-11.009358,1.739604,-1.630942,0.547623,0.314914,0.43253,95.774705,-13.551652,-37.304321,0.644841,-0.257196,0.653409,0.301806
-10.627415,2.275199,-0.553947,0.915475,0.234577,0.318479,95.728628,-13.734085,-37.001208,0.644557,-0.254539,0.655445,0.300247
-10.670503,2.590416,0.387445,1.15044,0.167642,0.235309,95.647996,-14.566171,-36.456029,0.644765,-0.251421,0.657494,0.297938
-10.733256,2.992108,0.543018,1.218915,0.098588,0.191757,95.517276,-14.876833,-36.520017,0.645255,-0.248157,0.659393,0.295406
-10.578503,2.785784,0.847328,1.012458,0.015181,0.207276,95.453207,-15.867609,-35.999818,0.645731,-0.245272,0.660847,0.29352
-10.250954,2.155111,0.962304,0.577178,-0.07012,0.241393,95.410068,-16.341547,-35.888012,0.645965,-0.243298,0.661613,0.292923
-9.996539,1.253211,0.838788,0.032402,-0.135348,0.300947,94.763913,-16.683568,-35.527796,0.645779,-0.242469,0.661645,0.293945
-9.861514,0.062429,0.663297,-0.526521,-0.168536,0.351825,94.616592,-16.83572,-35.566691,0.645088,-0.242878,0.660997,0.29657
-9.799907,-0.980005,0.451639,-0.866363,-0.159825,0.396015,94.632625,-16.975538,-35.743835,0.643994,-0.244038,0.660011,0.300171
-9.531564,-1.733436,0.879839,-0.872933,-0.082644,0.463383,94.204202,-16.777235,-36.094903,0.642604,-0.245126,0.659265,0.30388
-9.049865,-2.316934,1.666553,-0.612434,0.045988,0.54752,94.208394,-16.778235,-36.096476,0.641022,-0.245493,0.659221,0.307002
-8.226555,-2.59257,2.940181,-0.05851,0.187394,0.618012,93.926383,-16.911561,-36.312514,0.639517,-0.244459,0.660257,0.308736
-7.500196,-1.544361,3.443212,0.537262,0.305794,0.721049,93.300468,-17.220446,-36.26449,0.638145,-0.24181,0.662399,0.309074
-7.103001,0.200287,3.283894,1.002036,0.409057,0.839672,93.605419,-17.867804,-36.151325,0.636788,-0.237816,0.665457,0.308401
-7.356918,1.442313,2.416227,1.223844,0.537324,0.953444,93.205907,-18.862046,-35.503716,0.635145,-0.233121,0.669185,0.307305
-7.865665,1.690673,1.404276,1.257036,0.691188,1.018939,93.002928,-19.832991,-35.159098,0.633025,-0.228347,0.673365,0.306132
-8.396472,0.308976,0.933126,1.214466,0.865922,1.042839,92.783591,-20.838717,-34.50355,0.630347,-0.223814,0.677916,0.304959
-9.162815,-0.804708,0.73861,1.265893,1.043517,1.018994,92.37882,-22.316109,-33.758122,0.62724,-0.219417,0.682908,0.303419
-9.618922,-1.121202,0.616272,1.481087,1.203707,1.038232,92.089448,-23.341299,-32.772349,0.623827,-0.214617,0.688521,0.301196
-9.458262,-0.381171,0.679589,1.691733,1.398733,1.086109,91.676909,-24.681193,-31.852711,0.619959,-0.209387,0.694841,0.298335
-9.330942,0.698952,0.436383,1.710689,1.597286,1.134559,91.571192,-25.85474,-31.031337,0.615451,-0.204191,0.701637,0.295349
-9.833727,1.689723,0.49899,1.555408,1.739403,1.124036,91.427543,-27.387456,-29.775908,0.61038,-0.19954,0.708515,0.29262
-10.657666,1.969588,0.944031,1.271878,1.847296,1.065847,90.798996,-28.453686,-28.356771,0.604795,-0.19583,0.715212,0.290424
-11.3382,2.353262,1.481842,1.062999,1.907936,1.013516,90.798497,-29.853508,-26.907612,0.598885,-0.19281,0.721708,0.288615
-11.792109,2.69213,2.244709,1.047034,1.961854,1.016817,90.170695,-30.7435,-25.623948,0.592752,-0.189861,0.72825,0.286791
-11.811412,2.477693,2.235816,1.136154,2.074819,1.06498,90.166901,-31.832157,-24.136018,0.586252,-0.186677,0.735117,0.284714
-10.867001,2.125358,2.135505,1.311439,2.226004,1.082962,89.550915,-32.747929,-22.7017,0.57936,-0.183188,0.742457,0.282032
-10.410226,1.614055,2.35441,1.489252,2.446047,1.074261,89.527017,-33.828731,-21.208534,0.57189,-0.179539,0.750385,0.27862
-11.344543,1.299681,2.114695,1.548423,2.630201,1.063616,88.877709,-34.929626,-19.475894,0.563847,-0.175962,0.758668,0.27484
-12.738293,0.871313,1.372036,1.49498,2.773273,1.065115,88.518312,-36.187793,-17.722163,0.555248,-0.172623,0.767085,0.271077
-13.969683,-0.126007,0.490034,1.403009,2.929503,1.103634,87.987212,-37.322649,-15.653855,0.54598,-0.169504,0.775634,0.26752
-15.112842,-1.241186,-0.662313,1.349584,3.067617,1.098551,87.59542,-38.455852,-13.564945,0.536162,-0.166626,0.784273,0.263973
-15.871474,-2.800958,-0.460185,1.436986,3.205336,1.111579,86.623445,-39.275293,-11.516648,0.525857,-0.163634,0.793143,0.260043
-16.422227,-3.707194,0.586649,1.519523,3.351764,1.121729,86.06802,-40.421675,-9.288514,0.515027,-0.160554,0.80223,0.255727
-16.975842,-3.793511,1.870117,1.55124,3.479378,1.101063,85.055542,-41.11289,-6.902923,0.503716,-0.157564,0.811404,0.251131
-17.612053,-3.445909,3.139842,1.453411,3.558085,1.102275,84.047167,-42.093087,-4.712194,0.491971,-0.154802,0.82044,0.246737
-18.473148,-3.49573,4.393701,1.318839,3.599508,1.107828,82.899377,-42.920557,-2.521948,0.479886,-0.152283,0.829227,0.242699
-19.232437,-3.79494,5.379527,1.252499,3.588529,1.121765,81.72798,-43.604243,-0.154118,0.467666,-0.149795,0.837736,0.238849
-19.38489,-4.392147,6.507824,1.391966,3.505553,1.123262,80.581777,-44.408564,1.877867,0.455685,-0.146934,0.846022,0.234537
-18.665008,-4.610187,6.425157,1.65042,3.414479,1.116788,79.268596,-45.06919,4.067988,0.444051,-0.143516,0.854177,0.229355
-17.254059,-4.47482,6.169952,2.112748,3.348078,1.084739,79.275789,-45.073364,4.06835,0.432815,-0.139307,0.8624,0.222555
-16.691707,-3.473739,6.73818,2.662227,3.412923,1.021754,72.489063,-45.964744,8.38591,0.421593,-0.134399,0.870935,0.2137
-17.522874,-1.736198,6.086317,2.973705,3.479207,0.893568,73.407428,-46.128749,10.107534,0.410283,-0.129427,0.879498,0.203471
-18.398798,-2.439017,6.337413,3.007374,3.479184,0.850063,70.696113,-46.683103,11.903606,0.398889,-0.124507,0.887773,0.192989
-18.703547,-2.584317,5.402638,2.837979,3.453007,0.888083,69.281154,-46.893885,13.973876,0.387345,-0.119659,0.89561,0.183105
-19.048707,-2.724461,4.106998,2.61539,3.457062,0.854799,67.208391,-46.718562,15.843229,0.375588,-0.115231,0.903005,0.173891
-19.601767,-3.955638,4.964527,2.388115,3.466916,0.853083,64.902222,-46.825573,17.323068,0.363587,-0.111116,0.909997,0.165421
-20.897242,-3.406819,7.082857,2.297536,3.316351,0.654043,62.911487,-46.638873,18.880516,0.352113,-0.10771,0.916386,0.157012
-20.315452,0.160787,8.977917,2.385191,2.982668,0.151246,60.956804,-46.269206,20.1407,0.342094,-0.105753,0.921939,0.1477
-18.527824,8.244529,2.424544,2.189318,3.359902,-0.071687,58.70322,-45.401534,21.256679,0.330685,-0.105053,0.927577,0.138606
-17.890545,14.15528,-10.74564,1.653669,3.560276,-0.052192,57.065958,-44.402429,22.469625,0.31824,-0.105058,0.932968,0.131362
-18.247379,15.43723,-8.707587,0.476967,3.210787,-0.018084,54.979734,-43.833492,23.408034,0.306504,-0.106201,0.937148,0.128567
-17.035465,3.692411,-5.964662,-0.47847,2.818698,-0.005318,52.955304,-42.607925,23.94981,0.295757,-0.108229,0.940246,0.129428
-18.25466,3.841271,-2.713118,-1.209802,2.137891,-0.057976,50.683203,-41.178515,23.999681,0.287193,-0.110939,0.942058,0.133188
-16.638865,-1.095561,8.558458,-0.856837,1.503647,-0.075495,48.928206,-40.319439,23.396778,0.281105,-0.112979,0.943265,0.135893
-14.618203,-1.148194,0.327222,-1.970063,1.079077,-0.19027,47.457498,-38.98783,22.879105,0.276132,-0.116431,0.943301,0.142754
-9.779458,1.177564,-0.814324,-1.815139,0.584091,-0.69029,46.059239,-37.91165,21.693393,0.273311,-0.121274,0.94259,0.148718
-7.626578,0.60754,-2.827947,-1.272543,0.097935,-1.27901,44.943099,-36.417476,20.92274,0.272863,-0.127416,0.941341,0.152277
-7.251442,2.065026,-1.480579,-0.857421,-0.431972,-1.544474,43.582182,-34.538451,19.514503,0.274714,-0.13377,0.939593,0.154283
-6.996833,2.839425,-2.838624,-0.720216,-0.91391,-1.57967,43.064925,-32.589096,18.871734,0.278412,-0.139807,0.937341,0.155991
-6.190736,4.057141,-2.616994,-1.054811,-1.566095,-1.672383,42.313382,-30.573463,17.558525,0.28435,-0.14614,0.934053,0.159167
-4.930354,4.060723,-1.946597,-1.57506,-2.218405,-1.910482,41.965431,-28.769095,16.757961,0.292481,-0.153495,0.929457,0.164329
-3.797811,2.685279,-0.997208,-2.04949,-2.802523,-2.149779,41.084519,-26.867131,15.086882,0.302541,-0.161853,0.92355,0.171256
-3.308117,1.865147,-0.237599,-2.229213,-3.297584,-2.340589,40.782107,-24.860007,13.828387,0.314314,-0.170734,0.916549,0.178869
-3.291896,1.305249,0.197306,-2.151211,-3.732119,-2.53131,39.916088,-22.96782,12.161941,0.327718,-0.179839,0.90862,0.186195
-3.201015,0.480176,0.50602,-1.914329,-4.12851,-2.693154,39.313507,-20.954384,10.866621,0.342682,-0.188855,0.899877,0.192678
-3.450285,-0.285205,0.553073,-1.574016,-4.484331,-2.764252,38.710091,-19.250772,9.533928,0.359051,-0.197314,0.890465,0.198047
-4.378593,-0.411872,0.247947,-1.199417,-4.875499,-2.773184,38.055728,-17.43645,8.694952,0.376905,-0.204883,0.880362,0.202307
-5.254872,-0.211531,-0.602077,-0.898836,-5.275687,-2.794995,37.123525,-15.603613,7.661632,0.396197,-0.21166,0.869431,0.205716
-5.735051,-0.167563,-1.487806,-0.617379,-5.590883,-2.832633,36.304637,-14.112314,6.925723,0.416595,-0.217755,0.857707,0.208253
-6.163128,-0.058334,-2.060331,-0.275962,-5.855104,-2.881373,35.303529,-12.648198,6.488372,0.437951,-0.223107,0.845259,0.209663
-6.934004,0.460731,-1.928431,-0.052152,-6.111683,-2.915238,34.609376,-11.326307,5.909484,0.460087,-0.22783,0.831963,0.210359
-8.482958,0.983086,-2.110034,0.085511,-6.381333,-2.954099,33.598704,-10.035186,5.61289,0.482924,-0.232047,0.817664,0.210628
-9.9905,1.132803,-2.451865,0.193389,-6.615779,-2.98346,32.891097,-9.04,5.155682,0.506261,-0.235783,0.802356,0.210548
-11.159422,1.290658,-2.885734,0.248498,-6.806157,-2.984184,32.433901,-8.406868,5.173751,0.529835,-0.239065,0.786065,0.210297
-12.550269,1.70579,-3.585689,0.394507,-6.942062,-2.925903,31.856813,-7.739282,4.856006,0.553468,-0.241551,0.769003,0.209669
-14.068876,2.926031,-3.74033,0.463557,-7.056559,-2.778274,31.880779,-7.572005,4.71708,0.576912,-0.243143,0.751226,0.209079
-15.186815,5.887915,-4.075039,0.151039,-7.184935,-2.563488,31.911801,-6.920834,4.474459,0.599758,-0.244491,0.732452,0.20983
-15.346724,8.454136,-5.255647,-0.563232,-7.299837,-2.370169,32.110502,-6.878678,4.017523,0.62156,-0.246649,0.71236,0.213003
-14.599814,7.719752,-7.288787,-1.514673,-7.294393,-2.282876,32.619055,-6.691688,3.617288,0.641794,-0.250655,0.690929,0.218839
-13.874974,5.050669,-7.905297,-2.427189,-7.146464,-2.329981,32.896377,-6.572839,2.367736,0.660177,-0.256971,0.668396,0.226669
-13.795028,2.603659,-6.970308,-2.367325,-6.883335,-2.543263,33.651194,-6.297793,1.034932,0.677512,-0.263685,0.645763,0.233319
-14.239896,1.028684,-6.477481,-1.582824,-6.645088,-2.762892,33.932915,-5.870432,-0.176809,0.694669,-0.268866,0.623694,0.236962
-14.366279,1.57627,-5.819705,-1.039963,-6.503305,-2.871515,34.527081,-5.143705,-1.314005,0.711596,-0.272754,0.6019,0.238649
-14.750395,2.166147,-5.606003,-0.673333,-6.333384,-2.941729,35.319228,-4.684577,-2.945753,0.728037,-0.275739,0.580387,0.238916
-15.752512,1.760686,-5.809962,-0.391896,-6.160932,-3.019658,36.064647,-4.406616,-4.278298,0.743934,-0.27806,0.559123,0.237963
-17.239604,1.773662,-5.99638,-0.005216,-5.988104,-3.003214,36.376546,-3.483338,-5.750322,0.759343,-0.27919,0.53835,0.235861
-18.47149,1.902064,-6.256654,0.471642,-5.841689,-2.839571,36.864951,-2.861179,-7.400689,0.774315,-0.278512,0.518278,0.232927
-17.705508,1.469712,-6.904698,0.945197,-5.627727,-2.485858,37.02437,-2.399072,-8.946959,0.788577,-0.275711,0.499354,0.22973
-15.599049,1.467106,-7.578189,1.594274,-5.273378,-2.071076,37.19211,-1.783994,-10.475936,0.802041,-0.270269,0.482278,0.226037
-13.912227,2.246696,-8.096754,2.374362,-4.88422,-1.690881,37.206329,-1.319602,-12.041879,0.814861,-0.261875,0.467271,0.221542
-12.990943,3.68501,-8.368321,2.85305,-4.477198,-1.355464,37.15548,-1.380697,-13.030576,0.82676,-0.251576,0.454102,0.216722
-12.446976,4.619172,-9.1245,2.764172,-3.983006,-1.106177,36.671192,-1.571272,-14.253733,0.83715,-0.241438,0.442515,0.212292
-11.02111,4.74221,-10.294367,2.142896,-3.39179,-0.978522,36.298064,-1.484166,-15.101543,0.845568,-0.233529,0.432332,0.208731
-9.18062,4.585163,-11.40735,1.516311,-2.695484,-0.938178,36.113596,-1.836749,-16.305731,0.852035,-0.228142,0.423888,0.205684
-7.978344,4.424015,-11.764188,1.246222,-1.921835,-0.829784,35.728304,-1.610668,-16.977761,0.856793,-0.224069,0.417849,0.202732
-7.34205,5.502824,-11.423473,1.281929,-1.102388,-0.567601,35.487958,-1.54195,-17.647607,0.859982,-0.220084,0.414784,0.199868
-6.996141,7.463126,-11.184288,1.279646,-0.330813,-0.190045,35.356269,-1.833875,-17.86367,0.861596,-0.216089,0.41462,0.197607
-6.907858,9.134858,-11.220468,0.858548,0.420242,0.168418,35.496969,-2.145202,-17.87856,0.861344,-0.213507,0.416954,0.196596
-7.316004,9.740172,-11.538526,0.034313,1.16024,0.438923,35.361874,-2.281285,-18.074381,0.858976,-0.213821,0.421362,0.197217
-8.258211,9.198434,-11.526043,-0.993696,1.855873,0.661938,35.359954,-2.280819,-18.073608,0.854387,-0.217743,0.427475,0.199687
-9.560688,7.819647,-11.826833,-1.894417,2.48449,0.931697,35.485873,-2.3166,-17.741051,0.847665,-0.224684,0.435161,0.204002
-11.071624,6.192358,-10.792347,-2.494732,2.977175,1.234681,36.170778,-2.08444,-16.974202,0.839152,-0.233441,0.44417,0.209864
-11.384247,5.929426,-11.369333,-2.757943,3.417593,1.503389,37.062358,-1.657262,-16.647697,0.829159,-0.242886,0.454518,0.216598
-11.71281,6.374654,-10.234394,-2.919665,3.687119,1.803297,37.062358,-1.657262,-16.647697,0.817973,-0.25246,0.465719,0.224254
-11.084087,6.755931,-14.560846,-3.074913,3.890523,2.027404,37.825178,-1.456724,-15.021844,0.805719,-0.262193,0.477455,0.232613
-16.628803,-5.357944,14.86111,-3.250097,3.49052,2.082595,37.957029,-1.277393,-15.226602,0.793626,-0.271895,0.48762,0.24178
-26.478234,-37.509334,41.5444,-2.713865,2.167127,1.209183,38.389036,-1.300057,-14.179571,0.785194,-0.280261,0.493102,0.248545
-19.99004,-8.277256,18.984157,-2.15176,1.210637,1.423939,38.911681,-1.269155,-14.236184,0.778875,-0.28551,0.496346,0.255889
-6.181171,3.617928,-1.761171,-1.603249,1.240763,1.593348,39.187502,-1.272783,-14.197182,0.772845,-0.288759,0.500359,0.262621
-9.078696,-2.202217,-15.371847,-2.120919,1.744448,2.284519,39.34359,-0.967574,-14.142368,0.764418,-0.292691,0.506063,0.271842
-19.367315,-5.651726,-7.998749,-0.171005,2.511642,2.381976,39.463054,-1.311731,-13.844742,0.756449,-0.291365,0.516141,0.276569
-31.928354,-3.890486,-5.480201,1.520741,3.155326,1.976183,39.717211,-1.674745,-13.369948,0.749381,-0.286489,0.529373,0.275892
-26.294868,5.021199,-5.979078,0.160536,3.310784,2.1457,39.792937,-2.976694,-12.865214,0.740101,-0.285341,0.541654,0.278283
-17.025193,5.353463,-4.698694,-1.641163,3.318873,1.93608,39.83183,-3.551754,-11.79441,0.728831,-0.289781,0.551625,0.283798
-12.858879,4.380019,-1.391888,-2.005806,3.327331,1.91005,40.54194,-3.771699,-11.245333,0.71695,-0.295241,0.561029,0.289934
-9.498055,7.370908,-2.293948,-1.15945,3.182981,2.166692,40.608282,-4.005261,-10.452481,0.705873,-0.297523,0.571127,0.295021
-6.131741,13.977897,-1.574302,-0.386597,2.92894,2.458149,40.870014,-4.506019,-10.152956,0.695752,-0.296658,0.581615,0.29941
-5.127398,12.867466,-1.678954,-0.623028,2.719964,2.54181,40.75998,-5.078025,-9.100969,0.685576,-0.295934,0.591222,0.304737
-7.092709,8.431278,-3.354753,-0.722473,2.466266,2.294335,41.139498,-5.767471,-8.484727,0.676024,-0.295684,0.599624,0.309862
-8.991117,7.124953,-7.258076,-0.128795,2.26712,1.842988,41.094885,-6.434203,-8.085126,0.66806,-0.294632,0.607601,0.312585
-10.894676,3.541342,-9.692896,0.334992,2.068997,1.408442,40.705277,-6.810688,-7.366806,0.661548,-0.293115,0.61506,0.313272
-13.207876,-0.627122,-9.906939,0.973793,1.884823,1.193036,40.810462,-7.170807,-6.910707,0.656421,-0.290244,0.622503,0.312025
-14.832974,0.977779,-8.872759,1.806904,1.728905,1.032774,40.73026,-7.846733,-6.349928,0.65274,-0.285384,0.630328,0.308502
-14.858315,0.883244,-7.086079,1.886854,1.551097,0.89196,40.987132,-8.23127,-5.71864,0.649686,-0.280424,0.637571,0.304588
-13.912676,-0.028155,-5.195231,1.497377,1.295199,0.854982,41.066536,-8.913689,-5.140277,0.646831,-0.276217,0.643606,0.301804
-12.372573,-0.326147,-4.290263,1.216187,1.051489,0.878911,41.136715,-9.303462,-4.36671,0.644218,-0.272356,0.64868,0.300032
-11.548799,0.438961,-4.467439,0.830865,0.882611,0.859489,41.114742,-9.781846,-4.263923,0.641619,-0.269305,0.65283,0.299354
-11.557305,1.157844,-4.030548,0.252282,0.715016,0.759131,40.908737,-10.286579,-3.862873,0.638939,-0.267756,0.655761,0.300069
-11.960817,1.708057,-2.744854,-0.431224,0.529874,0.667176,40.552898,-10.322787,-3.424498,0.636115,-0.267928,0.65732,0.302493
-12.59816,1.872666,-1.177657,-0.830419,0.352162,0.56601,40.556705,-10.479252,-3.443467,0.633438,-0.269136,0.657849,0.305872
-12.498085,1.152071,0.575008,-0.760324,0.224404,0.4505,40.424134,-10.461203,-3.620751,0.631289,-0.27031,0.658011,0.308913
-11.576079,0.057808,1.082837,-0.160854,0.192815,0.377524,40.138315,-10.438626,-3.816556,0.629937,-0.270153,0.658736,0.310264
-10.282842,-0.034952,1.289154,0.608536,0.173823,0.35363,40.438478,-10.445338,-3.779074,0.629471,-0.268139,0.660318,0.309595
-9.071087,0.930398,0.659572,1.030428,0.134615,0.357687,40.532668,-10.956674,-3.340643,0.629535,-0.265027,0.662309,0.307884
-8.199178,1.532184,0.016296,1.102043,0.061736,0.404054,40.248993,-10.9349,-3.53656,0.629795,-0.261527,0.664244,0.306173
-7.962636,1.35183,0.077414,0.781046,0.030646,0.468646,40.38535,-11.109434,-3.378265,0.629721,-0.258607,0.665775,0.305481
-9.183835,0.620052,1.761142,0.26824,0.031989,0.490051,40.371858,-11.590885,-3.276126,0.629094,-0.256893,0.666713,0.306171
-10.453083,0.364202,2.228199,-0.034859,0.08303,0.53976,40.030406,-11.611088,-2.996128,0.627969,-0.255854,0.66746,0.307719
-10.312868,0.249912,2.728644,-0.348643,0.15725,0.606468,39.73857,-11.607718,-3.034066,0.626251,-0.255498,0.668074,0.310173
-8.954366,-0.707836,2.081409,-0.120629,0.295578,0.69496,39.890553,-12.077097,-3.071593,0.624287,-0.254518,0.669384,0.312108
-7.683187,2.538195,2.377477,-0.005295,0.396315,0.845792,39.8924,-12.056121,-3.229172,0.621982,-0.252982,0.671223,0.314004
-6.344788,1.454797,2.174158,-0.072023,0.489818,0.904662,39.717534,-12.551524,-2.987586,0.619284,-0.251565,0.673253,0.316121
-6.021554,1.241898,1.269103,0.045058,0.584178,0.98158,39.722939,-12.863988,-3.025328,0.616345,-0.249773,0.675719,0.318017
-6.456081,0.876452,0.872195,0.296646,0.652225,1.07611,39.706484,-12.879075,-2.866822,0.61334,-0.247206,0.678738,0.319403
-7.099526,0.414104,0.842192,0.680743,0.763058,1.134426,39.535963,-13.199415,-2.764251,0.610321,-0.243693,0.682536,0.319793
-7.726109,0.302686,0.393133,0.986962,0.972248,1.204167,38.891464,-13.521782,-2.558988,0.606921,-0.239516,0.687251,0.319319
-8.165639,0.304901,0.608913,1.260817,1.168577,1.221807,38.992826,-13.7257,-2.083576,0.603192,-0.234873,0.69275,0.31795
-8.600056,0.139656,0.869841,1.453147,1.319804,1.248218,38.459965,-14.25649,-1.403333,0.599152,-0.229875,0.698816,0.315959
-9.337031,0.702376,0.842016,1.600716,1.455471,1.28422,38.42539,-14.906382,-1.161103,0.594777,-0.22458,0.705352,0.3135
-10.149801,1.115964,0.798257,1.71096,1.615067,1.301451,38.203136,-15.42583,-0.601832,0.589977,-0.219155,0.712336,0.310606
-10.973423,1.786389,0.630635,1.699081,1.781588,1.280119,37.814929,-16.112438,0.078473,0.584662,-0.213993,0.719591,0.307517
-11.713194,2.273639,0.605325,1.593275,1.925227,1.218552,37.727806,-16.363889,1.010948,0.57886,-0.209393,0.72691,0.304429
-12.226691,1.012813,1.399918,1.556886,2.054683,1.190515,37.323505,-16.910737,1.868529,0.572624,-0.205084,0.734369,0.301238
-12.387331,-0.090058,2.478707,1.66558,2.218752,1.19928,37.422475,-17.268589,2.325221,0.565919,-0.200673,0.742233,0.297584
-12.436469,-0.033103,2.519111,1.77586,2.36672,1.198388,37.285206,-18.006886,3.518131,0.55879,-0.196163,0.750442,0.293448
-13.166459,0.157129,1.61951,1.745719,2.500513,1.221752,36.897856,-18.383585,4.235661,0.551128,-0.191771,0.758805,0.289302
-14.020597,-0.795563,0.578062,1.695662,2.628781,1.241055,36.653044,-18.78348,5.1312,0.542933,-0.187544,0.767275,0.285201
-14.309915,-2.259986,0.541608,1.662176,2.798528,1.280867,36.396071,-19.331699,6.006646,0.534063,-0.183422,0.775958,0.281109
-14.409124,-3.136583,0.104519,1.579439,2.946287,1.291564,35.827079,-19.580971,7.041323,0.524571,-0.179569,0.784716,0.27713
-14.703237,-3.353932,0.160613,1.482869,3.079914,1.257201,35.42866,-20.131044,7.899518,0.514534,-0.176126,0.793462,0.273226
-15.495144,-3.508663,1.071846,1.398431,3.216631,1.242064,35.00131,-20.378275,8.950948,0.503923,-0.17301,0.802216,0.269403
-16.406282,-3.393597,2.575816,1.360956,3.31206,1.240071,34.760067,-20.780711,9.847863,0.49288,-0.170036,0.810943,0.265571
-16.919867,-2.802065,3.920136,1.308184,3.362911,1.233598,34.177878,-21.202405,11.023414,0.481538,-0.167199,0.819528,0.2618
-17.318197,-2.458114,4.849975,1.303288,3.396416,1.218455,33.63987,-21.420341,11.740737,0.469992,-0.164417,0.827976,0.257935
-17.529964,-3.071817,5.638208,1.431515,3.399367,1.208766,33.207331,-21.689688,12.953287,0.458421,-0.161395,0.836362,0.253577
-17.267499,-3.475212,5.410984,1.701779,3.410474,1.193114,32.637833,-22.093942,13.969453,0.44689,-0.157913,0.844826,0.24824
-16.321545,-4.236042,5.162013,2.095683,3.409584,1.144642,32.373692,-22.04209,15.079688,0.435537,-0.153862,0.853425,0.241455
-15.651265,-4.583629,4.349281,2.546025,3.492068,1.117069,32.362967,-22.034728,15.075691,0.424082,-0.14917,0.862329,0.233004
-15.351106,-4.167965,3.822581,2.92153,3.473324,1.066676,30.06757,-22.521586,17.709203,0.412821,-0.143962,0.871242,0.223141
-15.672501,-3.769986,4.347172,3.245761,3.519802,1.066264,29.889524,-22.730772,18.57427,0.40144,-0.138222,0.880209,0.21207
-16.75385,-2.675273,3.435603,3.252866,3.558767,1.032197,28.851563,-22.829426,19.543122,0.389809,-0.13257,0.888901,0.200822
-18.482538,-2.93461,4.418143,3.090306,3.614572,1.022512,28.628058,-23.363857,21.056868,0.377766,-0.127195,0.897221,0.190022
-20.862389,-2.49139,6.037546,2.881975,3.569305,0.954741,28.043616,-23.297888,22.127502,0.365698,-0.122287,0.904975,0.179809
-21.30027,-0.683035,5.919914,2.303053,3.468654,0.848623,27.139972,-23.414902,23.460325,0.353672,-0.118473,0.911851,0.171485
-21.639099,0.303402,9.095848,2.014388,3.096616,0.527039,26.427398,-23.200799,24.536569,0.342968,-0.115925,0.917649,0.163875
-20.141724,3.352466,7.64668,1.700422,3.047496,0.192971,25.588319,-23.101297,25.25326,0.332442,-0.114941,0.922845,0.156932
-19.500892,9.647169,-1.151176,1.377355,3.588674,0.103511,25.057986,-22.859436,26.030466,0.319807,-0.115007,0.928315,0.150763
-19.25113,15.69234,-14.650785,0.723721,3.609904,0.13119,24.201392,-22.618839,26.923156,0.306714,-0.115776,0.933235,0.146955
-18.715779,13.13643,-7.112972,-0.143469,3.183644,0.125673,23.38316,-22.508027,27.484878,0.294729,-0.117338,0.93697,0.146469
-17.54304,3.277315,-7.375096,-0.668189,2.835332,0.136763,22.594484,-22.519467,27.708552,0.283729,-0.119248,0.939871,0.148053
-19.297529,2.938264,0.69844,-0.622211,2.064092,-0.006579,22.423661,-22.683226,27.827257,0.275636,-0.121174,0.941778,0.149653
-17.712225,-2.650257,6.592916,-0.172857,1.532197,-0.143928,21.817719,-22.666983,27.751385,0.269777,-0.122803,0.943255,0.149696
-15.608098,0.343391,0.181846,-1.20869,1.024444,-0.463915,21.493959,-22.514648,27.886332,0.265468,-0.126401,0.943399,0.153455
-10.924659,2.82263,-0.988932,-1.028661,0.483648,-0.970212,21.378988,-22.794316,27.517022,0.263533,-0.131349,0.9428,0.156287
-8.96975,3.987257,-2.658112,-1.008903,-0.121799,-1.485165,21.535577,-22.803112,27.540518,0.26414,-0.137797,0.941285,0.15882
-8.486598,3.981818,-2.722966,-1.008616,-0.737549,-1.625692,21.432843,-22.597915,27.063856,0.267083,-0.144372,0.939006,0.161529
-7.952031,3.583326,-3.290039,-1.139417,-1.331981,-1.586389,21.784916,-22.40522,26.644395,0.272088,-0.150554,0.935975,0.165082
-6.657548,3.601704,-2.459759,-1.331881,-2.019251,-1.762523,22.470791,-22.188608,25.944139,0.279577,-0.157124,0.931883,0.169537
-4.790892,3.333033,-2.106281,-1.627119,-2.590745,-2.047439,23.279558,-21.854688,25.601623,0.289105,-0.164648,0.926637,0.175078
-3.229398,2.59598,-2.233091,-1.887579,-3.038709,-2.289536,23.980395,-21.621786,24.741804,0.300184,-0.172998,0.92033,0.181535
-2.551409,1.854636,-2.020658,-1.97651,-3.472607,-2.474427,24.530639,-21.696219,23.827145,0.312803,-0.181756,0.913044,0.188332
-2.529365,1.07345,-1.112877,-1.835287,-3.877376,-2.583023,25.989706,-21.01856,23.117972,0.326934,-0.190366,0.904965,0.194713
-2.880919,-0.462903,-0.36329,-1.561525,-4.227662,-2.648414,26.704373,-20.458533,22.135488,0.342428,-0.198516,0.896239,0.200226
-3.545117,-1.927563,-0.026084,-1.212077,-4.548881,-2.678253,27.759887,-20.035496,20.858808,0.359194,-0.205967,0.88695,0.204639
-4.608357,-2.162828,0.261163,-0.845514,-4.886322,-2.709386,29.069927,-19.666334,20.095664,0.377284,-0.212647,0.877046,0.207916
-5.7637,-1.19635,0.226172,-0.518978,-5.261751,-2.78887,30.263102,-18.798529,19.05293,0.396804,-0.218704,0.866341,0.210162
-6.346878,-0.155474,-0.98869,-0.405907,-5.602994,-2.860321,31.299592,-18.07858,17.97039,0.41741,-0.224424,0.854647,0.212088
-6.279681,0.615786,-2.301752,-0.421178,-5.886425,-2.886486,32.360883,-17.503824,16.714595,0.43871,-0.229882,0.841922,0.214138
-6.317008,0.303246,-3.15551,-0.458702,-6.083022,-2.925194,33.585348,-16.604679,15.354002,0.460363,-0.235212,0.82823,0.216278
-7.301522,-0.145716,-3.282522,-0.39741,-6.249625,-2.959428,34.515048,-15.701992,13.958537,0.482314,-0.240237,0.813674,0.218159
-8.447974,0.520338,-3.3379,-0.246715,-6.427545,-3.046545,35.903871,-14.634546,12.47547,0.50469,-0.244924,0.798225,0.219402
-9.351715,0.920511,-3.354551,-0.049714,-6.570177,-3.105221,36.845702,-14.024437,10.882534,0.527356,-0.249093,0.781986,0.21988
-10.693933,0.982517,-2.785991,0.156641,-6.696191,-3.064521,37.63819,-12.790719,9.345416,0.550148,-0.252403,0.765073,0.219757
-12.447137,1.464213,-2.900708,0.261046,-6.835377,-2.942255,38.449117,-11.67576,7.469993,0.5729,-0.254795,0.74744,0.219541
-14.27733,3.712621,-3.377816,0.285501,-6.986962,-2.801657,39.228881,-10.613596,6.073112,0.595515,-0.256378,0.728998,0.219533
-15.034151,5.953636,-3.860884,0.10111,-7.122247,-2.629398,39.588159,-9.488609,4.142685,0.61767,-0.257561,0.709627,0.220398
-14.779223,7.334455,-4.968819,-0.458844,-7.192492,-2.43083,39.975455,-8.662961,2.017667,0.638748,-0.25926,0.689187,0.223175
-13.939442,7.434726,-6.2632,-1.115164,-7.197847,-2.292157,40.00571,-7.563058,0.367768,0.658494,-0.261993,0.667697,0.227873
-13.088504,5.805209,-6.803009,-1.73703,-7.069347,-2.284774,40.080712,-6.57163,-1.775946,0.676682,-0.26619,0.645403,0.233881
-13.222555,3.529423,-6.48996,-1.937806,-6.859462,-2.428904,39.846214,-5.280598,-3.76125,0.693674,-0.271242,0.622768,0.239591
-14.282483,2.134649,-6.946039,-1.426447,-6.65829,-2.631149,39.459319,-4.450458,-5.821448,0.71033,-0.275361,0.600426,0.243097
-15.846253,1.719296,-6.361899,-0.815458,-6.541634,-2.725189,39.531204,-3.167744,-7.770438,0.7269,-0.2779,0.578414,0.244592
-17.532921,1.354397,-5.962812,-0.345535,-6.347504,-2.757308,38.955687,-1.742728,-9.456858,0.74303,-0.279155,0.556937,0.24454
-18.919149,0.189255,-6.281835,0.11189,-6.123995,-2.816504,38.216672,-1.105074,-11.098038,0.758707,-0.279228,0.53609,0.242906
-19.148396,-0.274114,-6.944243,0.65759,-5.918964,-2.836088,37.783159,-0.010456,-12.646508,0.774061,-0.277733,0.51599,0.239684
-18.623397,-0.071674,-7.608282,1.274325,-5.670453,-2.660964,37.173593,0.919429,-14.071672,0.78893,-0.274077,0.497083,0.235328
-17.726362,0.671616,-8.008424,1.831165,-5.439113,-2.322625,36.40936,1.233602,-15.58933,0.803169,-0.268098,0.47947,0.230547
-16.35496,2.058163,-8.081202,2.346021,-5.114991,-1.949611,35.742211,1.481681,-16.458397,0.816562,-0.25995,0.463465,0.225505
-15.330431,4.048291,-8.713123,2.668293,-4.64678,-1.605556,34.934497,1.749595,-17.502606,0.828727,-0.250435,0.449357,0.220391
-14.267491,5.892906,-9.88783,2.52947,-4.050733,-1.260061,34.111367,1.692259,-18.426494,0.83907,-0.241172,0.437214,0.215965
-11.649023,7.360737,-11.374146,1.713073,-3.329708,-0.926122,33.279978,1.326365,-19.384518,0.846888,-0.234555,0.426934,0.213287
-7.538389,7.728687,-12.840713,0.49272,-2.492798,-0.684278,32.708361,1.371517,-19.776111,0.851856,-0.232232,0.418561,0.212643
-4.115321,6.947715,-14.152562,-0.467583,-1.508371,-0.528947,31.867804,1.609241,-20.503286,0.854153,-0.233651,0.412777,0.213178
-3.316009,6.432885,-15.469301,-0.865945,-0.420077,-0.311223,31.288043,2.102851,-20.68389,0.854125,-0.236948,0.410481,0.214083
-4.815724,6.552927,-15.347084,-0.795844,0.605619,-0.008782,30.998267,1.971103,-20.896619,0.852249,-0.24038,0.411938,0.214932
-6.667392,7.152887,-14.132713,-0.695531,1.489894,0.288617,31.267549,2.553419,-20.466691,0.848768,-0.243734,0.416688,0.215771
-8.104446,8.331889,-13.080098,-0.875435,2.216941,0.596115,31.552011,2.686038,-20.251332,0.843612,-0.247779,0.42396,0.217215
-9.43892,8.49791,-12.236765,-1.277105,2.839488,0.915633,31.839605,2.663183,-20.056394,0.836653,-0.253115,0.433194,0.219746
-11.410271,8.158922,-10.360127,-1.648623,3.330284,1.231631,32.382368,2.742227,-19.330797,0.828051,-0.259498,0.443938,0.223407
-11.898782,5.865853,-9.801925,-1.895412,3.604925,1.481969,33.376846,2.810314,-18.548283,0.818281,-0.266416,0.455488,0.227968
-15.030873,6.490216,-2.040638,-1.979668,3.830764,1.761926,33.915641,2.734982,-17.839625,0.80751,-0.273221,0.46783,0.233265
-22.115938,-13.919627,27.348054,-2.00938,3.031505,1.566712,33.906321,2.736365,-17.835798,0.798107,-0.279666,0.477277,0.238785
-24.165075,-17.589006,20.225512,-2.240141,2.098786,1.612339,34.547149,2.860187,-16.180706,0.789972,-0.285815,0.483544,0.245843
-14.872105,-1.682716,8.179338,-1.251245,1.682368,2.047309,34.590064,3.117972,-16.069501,0.78318,-0.287642,0.489882,0.252799
-9.877444,-0.531923,-7.743348,-0.484119,2.078126,2.135889,34.88844,2.838995,-15.885299,0.776293,-0.287303,0.498218,0.258078
-15.73949,0.979483,-11.117079,-0.335846,2.654697,2.253939,35.231116,2.488402,-15.367076,0.7682,-0.286818,0.508501,0.262736
-22.708878,-1.33827,-8.524853,0.461112,3.16398,2.058297,35.619254,1.96816,-14.892939,0.760029,-0.284792,0.520805,0.264598
-25.161614,-0.258336,-9.363432,-0.130267,3.347792,2.081262,35.826829,1.57731,-14.096895,0.750623,-0.284598,0.532946,0.267465
-20.188984,3.503252,-8.781392,-1.212817,3.325817,2.171273,36.355187,0.86594,-13.307018,0.739771,-0.287295,0.543854,0.272805
-15.389256,5.302236,-5.18334,-1.427429,3.248076,1.946172,36.580672,0.62703,-12.497593,0.728887,-0.290931,0.553911,0.277965
-12.194478,9.828652,-4.042647,-1.299337,3.01618,2.020244,36.976018,0.26215,-12.001419,0.71839,-0.293718,0.563395,0.283253
-9.668926,15.78016,-4.693317,-1.017553,2.752388,2.344927,37.028021,0.012988,-11.050611,0.708272,-0.29464,0.572692,0.28907
-7.752585,10.133432,-5.324022,-1.570042,2.487642,2.604523,37.285228,-0.660631,-10.613981,0.697651,-0.296142,0.580798,0.297079
-7.816241,4.750693,-4.704745,-1.387933,2.198587,2.476413,37.392662,-1.002303,-10.3135,0.687889,-0.297037,0.588049,0.304592
-8.382102,4.751464,-5.230027,0.068762,2.090771,1.994875,37.65273,-1.366585,-9.839858,0.680521,-0.294945,0.596086,0.307539
-9.642108,3.595488,-7.222621,0.770141,1.956664,1.558381,37.586083,-1.736774,-9.243291,0.674717,-0.291809,0.604034,0.30781
-11.694537,-0.599454,-8.22024,1.131287,1.714846,1.365406,37.827333,-2.27079,-8.629191,0.670059,-0.287852,0.611501,0.306968
-13.827809,-0.544225,-8.330674,1.899811,1.530082,1.170672,37.75742,-3.105346,-8.088272,0.666886,-0.282147,0.619101,0.303924
-15.071497,1.019596,-7.142748,2.285119,1.360191,1.002926,37.703212,-3.459447,-7.649501,0.664646,-0.275528,0.626498,0.299718
-14.651443,1.214516,-5.389887,2.080679,1.143125,0.900676,37.815762,-4.111981,-7.38799,0.662775,-0.26944,0.632898,0.295924
-13.413591,0.390732,-3.620158,1.947736,0.89914,0.847255,38.057018,-4.646227,-6.7737,0.661372,-0.263525,0.6384,0.292552
-12.191001,0.695077,-3.405083,1.956128,0.731312,0.766536,37.97946,-5.32336,-6.21317,0.660439,-0.257578,0.643347,0.2891
-11.10336,2.220406,-3.586199,1.765784,0.543374,0.724768,37.972246,-5.651237,-6.093369,0.65979,-0.251998,0.647511,0.286189
-10.540987,2.727083,-1.625827,1.165951,0.346109,0.683608,37.924063,-6.006967,-5.655508,0.659068,-0.247836,0.650427,0.284871
-11.016059,2.874772,-0.328895,0.437108,0.236552,0.535543,37.838114,-6.701504,-4.937561,0.658071,-0.245801,0.652095,0.285125
-11.906734,2.623519,0.361791,0.071182,0.160156,0.371149,37.57314,-6.510172,-5.273629,0.657098,-0.245038,0.652997,0.28596
-11.428995,1.97999,1.256451,0.10999,0.083079,0.271699,37.415586,-6.659456,-5.310317,0.656468,-0.244343,0.653648,0.286514
-10.16635,1.775417,1.615735,0.366172,0.079222,0.196827,37.388759,-6.826249,-5.169435,0.656174,-0.243178,0.654503,0.286226
-9.170502,1.780533,1.303686,0.631269,0.156096,0.107666,37.523422,-6.845076,-4.992323,0.656034,-0.241645,0.655765,0.284956
-8.454063,1.916742,0.829108,1.017173,0.187551,0.057348,37.370318,-6.840687,-5.010773,0.656226,-0.239286,0.657482,0.282537
-8.099746,1.872353,1.055052,1.345209,0.152336,0.098629,37.199782,-7.02655,-4.732611,0.656756,-0.235936,0.659497,0.279408
-7.806849,2.339544,1.203981,1.348533,0.126606,0.161927,37.467176,-7.063562,-4.378114,0.657271,-0.23238,0.661491,0.27645
-8.371871,1.997695,1.570379,0.997968,0.100939,0.21988,37.593035,-7.389582,-4.237635,0.657457,-0.229542,0.66308,0.274565
-9.425168,2.784191,1.995158,0.416002,0.0573,0.255268,37.432184,-7.868354,-4.154583,0.657192,-0.228058,0.663958,0.274314
-9.946873,0.265778,2.15931,0.050097,0.069304,0.3399,37.442564,-7.716816,-4.136754,0.656477,-0.227307,0.664548,0.275218
-9.815419,1.485201,1.837042,-0.097126,0.144324,0.431942,37.429775,-8.022589,-4.173098,0.655336,-0.226774,0.665253,0.276673
-9.183065,0.453192,1.846921,-0.484969,0.196126,0.49611,37.605776,-7.859063,-4.294941,0.653642,-0.227122,0.665722,0.279252
-7.557238,-0.957511,1.172638,-0.40978,0.286093,0.603193,37.441824,-8.161035,-4.349903,0.651658,-0.227096,0.666592,0.281825
-6.375698,-1.646549,1.493905,-0.297064,0.352878,0.739913,37.431767,-8.023278,-4.173271,0.649441,-0.226497,0.667868,0.28439
-6.176008,-2.16041,1.030052,0.20767,0.463877,0.874677,37.261353,-8.343764,-4.070657,0.647222,-0.224387,0.670096,0.285877
-6.594502,-1.162912,1.142129,0.599213,0.621862,0.954363,36.938265,-8.504861,-3.967863,0.644829,-0.22125,0.673216,0.286397
-7.50525,0.345446,1.670709,0.812883,0.835051,0.973642,36.780107,-8.674673,-3.847537,0.64202,-0.217755,0.677109,0.286211
-8.501548,1.12463,2.403842,0.924425,1.033448,0.997297,36.74005,-9.167456,-3.586167,0.638728,-0.214131,0.681617,0.285609
-8.824729,1.053245,3.000566,1.072064,1.201039,1.120459,36.39386,-9.362356,-3.167128,0.634943,-0.209986,0.686776,0.284767
-8.15288,0.959619,2.97173,1.217596,1.403068,1.21455,36.784903,-9.879104,-2.691056,0.630589,-0.205439,0.692628,0.283582
-8.43611,0.692513,1.696611,1.256491,1.643964,1.245928,36.287205,-10.225235,-2.309306,0.625527,-0.200961,0.699086,0.282153
-9.985147,0.071933,0.550668,1.254983,1.897427,1.245447,36.220144,-10.750329,-1.731452,0.619711,-0.196748,0.706093,0.2805
-11.62373,-1.08706,-0.074972,1.333956,2.140144,1.271061,36.138572,-11.291321,-0.995153,0.613189,-0.192517,0.713715,0.278473
-12.6516,-1.54524,0.081668,1.454651,2.369208,1.257709,35.9223,-11.813522,-0.435947,0.606052,-0.188258,0.721911,0.275869
-13.13801,-1.155078,0.885181,1.533653,2.568114,1.232828,35.833828,-12.041353,0.337755,0.598347,-0.184068,0.730536,0.272795
-13.708398,-0.203866,1.303668,1.494251,2.716812,1.232257,35.906824,-12.742777,1.074199,0.59009,-0.180099,0.739345,0.269679
-13.660196,0.524971,1.573838,1.389752,2.867019,1.254658,35.631986,-13.15095,2.127198,0.581199,-0.176433,0.748275,0.266764
-12.956645,0.537102,2.070196,1.12454,3.058335,1.290114,35.685075,-13.710823,3.040735,0.571421,-0.173432,0.757249,0.264524
-13.194068,0.33507,1.720931,0.740488,3.223989,1.270649,35.321895,-14.076255,3.600424,0.560803,-0.171483,0.766037,0.263212
-14.505459,-0.64063,1.29161,0.427553,3.367432,1.246121,35.040179,-14.503993,4.812542,0.549459,-0.170407,0.774648,0.262635
-16.549526,-2.088905,0.879451,0.297019,3.496223,1.264613,34.95518,-14.888345,5.567409,0.537503,-0.169651,0.78325,0.262351
-18.521188,-3.877908,0.859455,0.454164,3.586357,1.286001,34.540626,-15.29825,6.602744,0.525234,-0.168554,0.792042,0.261513
-19.705033,-5.754675,2.020516,0.90763,3.717756,1.328696,34.019472,-15.346388,7.18045,0.512685,-0.166488,0.801402,0.25921
-19.913877,-6.239821,3.430325,1.419734,3.840342,1.326154,33.731745,-15.926155,8.372966,0.49995,-0.163484,0.811309,0.255148
-19.365814,-5.439996,4.667647,1.803863,3.93425,1.291514,33.317527,-16.18119,9.427189,0.487047,-0.159883,0.821517,0.249665
-19.248707,-4.941078,6.028181,2.058082,4.022496,1.262075,32.860868,-16.616285,10.777543,0.47389,-0.155928,0.831854,0.243173
-19.508052,-5.097003,7.030533,2.292881,4.043342,1.213713,32.149646,-16.866963,11.796166,0.46069,-0.15166,0.842137,0.235732
-19.732716,-4.754662,8.108994,2.589308,4.00703,1.115122,31.990062,-17.306361,13.181911,0.44771,-0.147095,0.852265,0.227075
-20.006281,-4.003958,9.383646,2.965808,4.041281,0.980071,31.690867,-17.43837,14.589498,0.434781,-0.142296,0.862384,0.216822
-19.990059,-2.209128,9.559378,3.075221,4.061359,0.873886,31.225833,-17.582777,16.137605,0.42176,-0.137628,0.872223,0.205922
-19.303173,0.204249,7.449495,3.012537,3.956144,0.84704,31.22932,-17.584897,16.139024,0.408918,-0.133015,0.881478,0.195165
-18.479506,2.211426,3.28762,2.563723,3.862863,0.933281,29.176551,-17.806267,18.900799,0.395949,-0.128703,0.889965,0.18607
-19.241386,-1.026759,4.786994,2.291443,3.954039,1.064204,29.177887,-17.94646,19.592596,0.382297,-0.12438,0.898159,0.178014
-20.421302,-3.032906,5.623688,1.791267,3.88125,1.048664,28.390447,-18.048944,20.53373,0.368547,-0.120768,0.905603,0.17167
-20.061267,0.01374,4.774841,1.688478,3.680814,0.770351,27.753523,-18.091681,21.730076,0.355542,-0.11812,0.912306,0.165335
-20.729043,0.010868,7.585435,1.667145,3.221387,0.243683,27.03416,-18.162654,22.605016,0.344422,-0.117055,0.917902,0.158518
-18.968847,1.993178,5.589054,1.143669,2.814604,-0.025863,26.627708,-17.9315,23.551938,0.334629,-0.117389,0.922345,0.153374
-16.37823,9.262503,-5.387323,0.814155,3.174842,0.033679,26.262024,-17.675586,24.186934,0.323299,-0.118136,0.926946,0.149307
-15.779724,16.968976,-14.077177,0.425252,3.104353,-0.006913,25.443569,-17.719332,24.7297,0.312017,-0.119462,0.931065,0.146606
-12.759475,12.558317,-7.102249,0.03415,2.573564,-0.142683,24.921735,-17.611375,25.32415,0.30252,-0.121438,0.934128,0.14539
-12.983224,5.089201,-10.861977,-0.908398,2.069093,-0.154987,24.751167,-17.62058,25.461738,0.294396,-0.124276,0.935967,0.147825
-14.203121,0.708179,8.303989,-0.539113,0.983462,-0.287535,24.249912,-17.65566,25.882282,0.290484,-0.12654,0.936655,0.149276
-14.439968,-5.03069,8.2296,-0.244818,0.554744,-0.44837,24.118164,-17.638964,25.707398,0.288377,-0.128807,0.936933,0.149677
-12.767597,0.839535,4.969679,-1.149963,-0.080998,-0.780705,23.971818,-17.483477,25.710797,0.288327,-0.132935,0.93578,0.153334
-8.323402,2.061049,0.49604,-0.873436,-0.490186,-1.198104,24.333838,-16.96059,25.164668,0.290156,-0.138027,0.934083,0.155717
-5.516469,3.433274,-1.868541,-0.563761,-1.073076,-1.835739,24.498459,-16.947171,25.022668,0.294649,-0.144733,0.931518,0.156553
-4.224093,3.069912,-2.621557,-0.123429,-1.665475,-2.128805,25.024702,-17.058201,24.431477,0.3017,-0.151623,0.928291,0.15577
-4.750465,3.245624,-1.786458,-0.093033,-2.328397,-2.006807,25.813067,-16.580945,24.262818,0.31106,-0.157613,0.924258,0.155394
-5.50029,3.648002,-0.598165,-0.551218,-2.947548,-1.882723,26.643326,-15.898551,23.632259,0.322248,-0.16331,0.91912,0.157179
-5.574042,4.486115,-0.318634,-1.274038,-3.493443,-1.971287,27.460623,-15.414239,23.313403,0.334916,-0.169863,0.912585,0.16176
-5.165299,4.238463,-0.457986,-1.764581,-3.960465,-2.203593,28.209257,-14.980697,21.99612,0.348967,-0.177537,0.90469,0.168046
-4.820414,2.491965,-0.480244,-2.121167,-4.339989,-2.401392,28.907948,-14.747398,21.135851,0.364101,-0.186078,0.895544,0.175518
-4.8068,0.574419,-0.324767,-2.16576,-4.671497,-2.520247,29.996819,-14.139285,19.560896,0.380274,-0.194782,0.885388,0.183136
-5.327148,-0.719221,-0.349943,-1.867471,-4.96199,-2.587742,30.739288,-13.571656,18.426394,0.397533,-0.20297,0.874509,0.189749
-6.437301,-0.973153,0.405965,-1.332279,-5.329388,-2.644276,31.837539,-12.81296,16.873608,0.416296,-0.210136,0.862935,0.194634
-7.234406,-0.875706,-0.070353,-0.925199,-5.737519,-2.645779,32.886609,-12.2314,15.612386,0.436527,-0.216212,0.850499,0.198364
-7.672676,0.13652,-1.390802,-0.796445,-6.063553,-2.586401,33.525329,-11.148014,14.037844,0.457625,-0.22148,0.837111,0.201917
-8.014448,0.54769,-2.310266,-0.78694,-6.378587,-2.621666,34.42808,-10.720331,12.741609,0.479471,-0.226444,0.822555,0.205508
-8.711099,-0.116816,-3.225754,-0.785836,-6.612133,-2.702278,35.223052,-9.621005,11.024225,0.501773,-0.231307,0.806872,0.208996
-9.934245,-0.739084,-4.134658,-0.534553,-6.789265,-2.784752,36.201427,-8.981935,9.115388,0.524527,-0.235608,0.790328,0.211524
-11.034542,-0.240858,-4.412861,-0.125796,-6.955652,-2.844786,36.402879,-8.027059,7.307476,0.547785,-0.238923,0.773066,0.212643
-11.899056,1.18833,-4.163771,0.287618,-7.09702,-2.795606,36.905081,-6.924026,5.555179,0.571341,-0.24088,0.755223,0.212567
-12.674748,2.770734,-4.419123,0.517272,-7.201829,-2.600657,37.257296,-6.127706,3.747009,0.594757,-0.24145,0.736854,0.212159
-12.823287,3.790412,-4.743543,0.427099,-7.275714,-2.358187,37.614366,-5.022621,1.976239,0.617573,-0.241257,0.717816,0.212457
-13.067043,3.477652,-5.494073,0.267925,-7.230995,-2.172093,37.502371,-4.521961,0.074184,0.63942,-0.240749,0.698306,0.213426
-13.19473,4.241764,-6.737685,0.034485,-7.177453,-2.070215,37.548752,-3.562085,-1.752718,0.660275,-0.240393,0.678234,0.21505
-13.651748,5.019998,-7.339663,-0.163829,-7.08423,-2.062506,37.292463,-2.749699,-3.63547,0.680141,-0.240405,0.657681,0.216954
-14.424403,4.045401,-7.349394,-0.206362,-6.956071,-2.127302,37.025674,-1.953837,-5.360284,0.699142,-0.240609,0.63684,0.2185
-14.893406,2.842913,-6.937691,-0.159436,-6.826277,-2.217013,36.299135,-1.30024,-7.159163,0.71739,-0.240831,0.615808,0.21939
-15.585749,1.574343,-6.749104,0.040403,-6.675996,-2.306272,35.746433,-0.481657,-9.080169,0.734994,-0.240652,0.594815,0.21924
-16.594292,1.183954,-6.826715,0.261959,-6.532634,-2.353667,34.807592,0.424417,-10.227212,0.75197,-0.239892,0.57394,0.218142
-17.807265,1.538438,-7.364124,0.399789,-6.342578,-2.397766,34.066079,0.907615,-11.886746,0.768154,-0.238818,0.553292,0.216274
-18.298607,1.106993,-7.878392,0.44146,-6.106763,-2.43033,33.318043,1.701945,-13.506591,0.783377,-0.237727,0.532985,0.213852
-17.266264,0.243031,-8.17904,0.563661,-5.835568,-2.342967,32.396223,2.158046,-14.868844,0.797587,-0.236159,0.51336,0.211058
-15.425979,0.015325,-8.267141,0.903772,-5.533209,-2.093351,31.154175,2.761833,-16.09079,0.810847,-0.233147,0.494897,0.207961
-13.754253,1.221191,-7.997412,1.347114,-5.185874,-1.794258,30.343424,3.185191,-17.114845,0.823185,-0.228316,0.477917,0.204532
-13.089785,2.844422,-7.839097,1.574028,-4.811798,-1.503858,29.214541,3.135929,-18.074417,0.834429,-0.22241,0.462368,0.20119
-13.738916,3.646303,-7.947925,1.510267,-4.40195,-1.246612,28.406918,3.403811,-19.118491,0.844359,-0.216486,0.448153,0.198369
-14.762989,3.435445,-9.259966,1.20497,-3.91001,-1.033732,27.41605,3.335205,-19.90252,0.852748,-0.211512,0.43537,0.196308
-13.867374,3.855635,-9.72297,0.928301,-3.326062,-0.935523,26.695644,3.073752,-20.351887,0.859647,-0.207692,0.424303,0.194519
-10.820844,4.498046,-10.521741,0.7721,-2.514679,-0.888315,25.834627,2.987094,-20.956225,0.86491,-0.204905,0.415817,0.19246
-7.23609,4.931102,-12.470878,0.535861,-1.692706,-0.698625,25.129859,3.050813,-21.525871,0.868435,-0.203208,0.41005,0.190752
-4.392541,4.988086,-12.783096,0.602739,-0.886495,-0.41969,24.69702,2.921413,-21.761812,0.870483,-0.201432,0.407277,0.189237
-3.997086,5.815863,-11.938136,0.920949,-0.020047,-0.086934,24.523394,2.911148,-21.618287,0.871144,-0.198682,0.407943,0.187662
-6.153156,8.315468,-11.156579,0.966137,0.790548,0.225014,23.918873,2.926132,-21.692936,0.870305,-0.195871,0.411633,0.186445
-8.318154,9.982791,-11.514777,0.421564,1.525542,0.483356,23.768385,2.619774,-21.749899,0.867651,-0.195025,0.417608,0.186413
-9.821483,9.800019,-10.919359,-0.665018,2.209233,0.696921,23.889159,2.430366,-21.434794,0.86284,-0.197998,0.425243,0.188343
-10.650268,8.379474,-11.330385,-1.76223,2.838361,0.934743,24.334698,2.265662,-21.392927,0.855836,-0.20471,0.434313,0.192384
-11.231932,6.447833,-9.632283,-2.487442,3.328131,1.244637,24.597876,2.675958,-20.829505,0.846977,-0.213638,0.444617,0.198253
-11.293945,6.133136,-12.098954,-2.900368,3.748257,1.537727,25.034192,2.959771,-20.576753,0.836525,-0.223676,0.456082,0.205389
-18.937177,-2.542573,14.70773,-2.876625,3.688264,1.654532,25.590255,3.209387,-19.98924,0.825779,-0.233292,0.467294,0.212837
-28.45614,-26.653922,34.277162,-2.524743,2.534401,1.148699,26.172223,3.800216,-19.677131,0.817628,-0.241665,0.474471,0.218997
-24.769393,-4.525331,15.320879,-2.31012,1.687839,1.690577,27.217233,3.91335,-19.371019,0.81062,-0.247574,0.479543,0.227244
-9.180943,1.953665,2.414278,-1.838625,1.684035,1.858915,27.335517,4.499296,-18.959854,0.803791,-0.251631,0.485105,0.235107
-7.765692,-1.738853,-14.573009,-2.22737,2.184378,2.091864,27.337128,4.499086,-18.960665,0.795264,-0.256879,0.492017,0.243902
-11.745575,-4.334809,-10.662221,-1.431329,2.665459,2.199929,27.852423,4.635019,-18.27472,0.78633,-0.259846,0.501181,0.250965
-20.70912,-2.86262,-6.290482,-0.057504,3.19911,1.616088,27.809822,4.444803,-18.267331,0.778151,-0.260205,0.512631,0.25295
-22.045307,1.461242,-4.559922,-0.896929,3.267574,1.596002,27.988846,4.204043,-17.710278,0.768837,-0.263168,0.523332,0.256431
-17.803563,3.80862,-7.253952,-2.411506,3.14614,1.688522,28.670818,3.996665,-17.129514,0.757922,-0.270302,0.53211,0.263346
-13.545086,1.734472,-6.026324,-2.734917,2.973242,1.703279,29.088044,4.127175,-16.893654,0.746782,-0.278103,0.539899,0.27108
-11.03834,1.704326,-3.746053,-1.604212,2.81332,1.872586,29.653759,4.220512,-16.329168,0.736832,-0.282006,0.548461,0.277025
-9.790161,4.722295,-2.801125,-0.307035,2.653469,1.96968,29.765601,4.342393,-15.972094,0.728402,-0.281737,0.557964,0.280591
-8.659674,8.798893,-3.040937,0.105252,2.450767,2.015775,30.005054,4.119209,-15.320907,0.720695,-0.279926,0.5673,0.283566
-9.306147,11.558033,-4.375326,0.024514,2.194162,1.854718,30.603973,3.950003,-15.262982,0.713544,-0.278375,0.575566,0.286506
-10.28962,7.480981,-4.301792,-0.128433,1.931889,1.779414,30.678541,3.405128,-14.510568,0.706814,-0.277092,0.582779,0.289831
-11.416559,3.310214,-6.003859,0.065398,1.742597,1.65733,30.784655,2.753183,-14.24603,0.700792,-0.27531,0.589498,0.292553
-11.675053,1.733515,-7.269925,0.637458,1.590134,1.360951,30.908104,2.718436,-13.912265,0.696016,-0.272447,0.596085,0.293286
-11.71336,0.601552,-5.717965,1.292581,1.49066,1.109017,31.325562,2.21261,-13.594827,0.692405,-0.268255,0.602838,0.291892
-12.46985,0.274808,-4.547468,1.759501,1.382455,0.978362,31.575425,1.695487,-13.137625,0.689629,-0.262961,0.609644,0.289134
-12.664794,0.20678,-4.227554,1.95352,1.238565,0.889232,31.703046,1.194868,-12.86141,0.687432,-0.257171,0.616134,0.285796
-12.022899,-0.064583,-3.053361,1.999039,1.08332,0.816952,31.800021,0.681787,-12.422274,0.685676,-0.251242,0.622128,0.28228
-11.363989,0.222243,-1.599799,1.893067,0.960655,0.779959,31.898348,0.013496,-12.002412,0.684097,-0.245523,0.627594,0.279027
-11.217645,1.315669,-0.987007,1.575267,0.856195,0.702995,32.029987,-0.469671,-11.880832,0.682509,-0.240713,0.632318,0.276427
-11.404059,2.565961,-0.795847,1.024192,0.746918,0.627423,31.841564,-0.805079,-11.618945,0.680726,-0.237432,0.636059,0.275078
-11.234727,3.069619,-0.209964,0.325032,0.623033,0.570814,31.809194,-1.30036,-11.358579,0.678648,-0.236012,0.638652,0.275424
-10.859307,2.980993,0.105973,-0.30321,0.533755,0.501482,32.069655,-1.199913,-10.829039,0.67628,-0.236332,0.640261,0.277233
-10.738001,2.390884,0.311009,-0.65988,0.467976,0.426991,32.098145,-1.478713,-11.182435,0.673819,-0.237706,0.641232,0.279794
-10.781305,1.265161,0.980218,-0.718182,0.399692,0.349929,32.240969,-1.809626,-11.045022,0.671549,-0.239349,0.641879,0.282357
-10.229111,0.075664,1.631644,-0.435444,0.369524,0.325296,31.949634,-1.165569,-11.164199,0.669638,-0.240275,0.642728,0.284172
-9.374537,-0.091241,1.479469,0.080432,0.401923,0.33471,31.91988,-1.351525,-10.866852,0.668115,-0.239863,0.644239,0.284684
-9.007322,0.226546,0.722813,0.553089,0.405323,0.370792,31.928779,-1.489611,-11.042156,0.666981,-0.238128,0.646313,0.284095
-8.898281,0.586185,0.587856,0.859117,0.411442,0.433384,31.748724,-1.361995,-10.726112,0.666039,-0.235442,0.648794,0.282888
-8.948127,0.997654,0.58329,0.96584,0.409698,0.496379,31.748307,-1.516913,-10.7448,0.665118,-0.232313,0.651434,0.28157
-8.968621,1.298027,0.540552,0.75408,0.446644,0.520634,31.852396,-2.031589,-10.307637,0.663873,-0.229709,0.653948,0.280816
-9.132181,1.391025,1.083202,0.301034,0.50912,0.526237,31.850615,-2.031129,-10.3072,0.662048,-0.228331,0.656124,0.281175
-9.36707,1.053456,1.740578,-0.117938,0.554813,0.555924,32.146688,-2.347053,-10.305936,0.659691,-0.228008,0.657978,0.28264
-9.563048,0.594911,2.019919,-0.408326,0.587035,0.608448,32.121489,-2.844395,-10.047193,0.656927,-0.228331,0.659631,0.284954
-9.520813,0.75431,1.348516,-0.476424,0.606533,0.667253,32.131611,-2.517522,-10.166588,0.653975,-0.228695,0.6613,0.287572
-9.279901,0.492884,0.607461,-0.306593,0.620121,0.733337,32.105789,-2.685093,-10.024677,0.651053,-0.228465,0.663241,0.289903
-8.915662,-0.140163,-0.225416,-0.096374,0.648995,0.827101,32.096501,-2.702117,-9.867912,0.648127,-0.227487,0.665566,0.291897
-8.504692,-1.024585,-1.288177,0.212467,0.699356,0.917733,32.095667,-3.01193,-9.905284,0.645226,-0.225543,0.668437,0.293266
-8.439512,-2.008339,-1.50438,0.666092,0.805276,0.968922,31.926308,-3.02277,-9.765067,0.642374,-0.222439,0.672122,0.293479
-8.240163,-2.505828,-0.082743,1.182647,0.985979,1.003701,31.894356,-3.363248,-9.485922,0.639429,-0.218144,0.676854,0.292254
-8.346673,-1.105444,1.469318,1.71308,1.183439,1.01834,32.002437,-3.724155,-9.030763,0.636355,-0.212697,0.682654,0.289475
-8.706904,1.374844,2.527466,2.008639,1.356746,1.061706,31.794926,-4.383738,-8.647611,0.632957,-0.206576,0.689191,0.285845
-8.339912,2.733449,3.120347,1.873554,1.498585,1.111131,31.764324,-4.87978,-8.387432,0.628947,-0.200793,0.695895,0.282557
-8.190984,3.588881,2.624924,1.455691,1.621642,1.105092,31.84882,-5.253716,-7.772202,0.624219,-0.196168,0.702368,0.280265
-9.218828,4.103611,1.988551,0.983639,1.741993,1.043675,31.763527,-5.793311,-7.035543,0.618813,-0.192978,0.70851,0.279003
-10.917689,2.890536,2.241263,0.733948,1.878461,0.977389,31.593753,-5.958958,-6.914125,0.612865,-0.190709,0.714605,0.278147
-12.347101,1.417201,2.192467,0.704036,1.973133,0.979434,31.996537,-6.480186,-6.438782,0.606579,-0.188593,0.720838,0.277286
-12.90692,0.410613,1.277567,0.838048,2.070609,0.991778,32.106419,-6.842227,-5.98332,0.60005,-0.186214,0.727392,0.275981
-12.997184,-0.201433,0.452907,1.133619,2.233564,1.002107,32.18555,-7.214232,-5.367344,0.593201,-0.18327,0.734579,0.273713
-12.972457,-0.730519,0.980045,1.535381,2.475979,0.994905,32.10245,-7.599506,-4.612291,0.585874,-0.17965,0.742658,0.270066
-12.428253,-0.436593,2.05969,1.812087,2.716336,0.985495,32.072282,-7.940897,-4.333049,0.57796,-0.175649,0.751453,0.265384
-12.116527,0.613203,2.598279,1.709024,2.90021,1.020637,32.119882,-8.498556,-3.419181,0.569293,-0.171936,0.760441,0.260908
-12.906713,0.691443,1.423891,1.23106,3.005545,1.020295,32.173261,-8.903385,-2.487076,0.559886,-0.169362,0.769037,0.257732
-14.4897,-0.885208,0.259688,0.783778,3.116829,1.029369,31.77941,-9.122592,-1.750305,0.549741,-0.167822,0.777294,0.2558
-16.088411,-3.410029,-0.156263,0.583626,3.293217,1.060674,31.702989,-9.665718,-1.0142,0.538797,-0.166761,0.785608,0.254381
-17.367278,-5.423953,0.225264,0.693837,3.4523,1.054715,31.634059,-9.569636,-0.361559,0.527333,-0.165612,0.794203,0.252455
-18.1922,-6.645902,1.638981,1.045106,3.606589,1.047558,31.699076,-10.422583,0.356004,0.515507,-0.163876,0.803282,0.249269
-18.657833,-6.500119,2.969798,1.432183,3.730465,1.055899,31.467457,-10.495038,1.129729,0.503404,-0.161414,0.812792,0.244744
-18.812712,-6.005619,4.571158,1.747015,3.785916,1.078796,31.349707,-10.90965,2.201555,0.491163,-0.158269,0.822503,0.239162
-18.79694,-5.615846,5.762733,1.961592,3.805384,1.073894,31.231966,-11.324229,3.273287,0.478854,-0.1547,0.832209,0.232799
-18.821782,-5.420587,6.86867,2.167177,3.761092,1.014723,30.828876,-11.561307,4.16784,0.466722,-0.150851,0.841732,0.225614
-19.244084,-5.227582,8.60279,2.550286,3.75297,0.936208,31.017769,-12.295663,5.240059,0.454764,-0.146508,0.851266,0.216959
-19.552419,-3.334993,8.764612,2.899043,3.7725,0.789241,30.902195,-12.556153,6.33063,0.44291,-0.142,0.860756,0.206798
-18.998024,-1.44405,8.145756,3.104237,3.797826,0.699448,30.755449,-12.847686,7.738478,0.430996,-0.137408,0.870093,0.195703
-18.19237,1.152746,6.547193,3.096646,3.77777,0.729415,30.654597,-13.092215,8.670238,0.418963,-0.13266,0.879083,0.184622
-17.001428,3.197055,3.811546,2.761763,3.764781,0.881518,30.654597,-13.092215,8.670238,0.406542,-0.127881,0.887574,0.17488
-17.511126,1.559305,2.844591,2.074195,3.807355,1.006228,29.189046,-13.710533,10.68112,0.393412,-0.12375,0.895438,0.167643
-18.983874,-0.605417,3.741841,1.481196,3.766603,0.99876,29.046061,-13.671703,11.240097,0.380032,-0.120494,0.902591,0.162441
-20.136462,0.457133,3.037973,1.293558,3.572715,0.750155,28.594449,-14.05575,11.75935,0.367309,-0.11824,0.908995,0.157582
-20.930935,-1.379717,4.595988,1.362354,3.306411,0.314493,28.129195,-14.252264,12.807546,0.355754,-0.117245,0.914662,0.151942
-20.239168,-1.565323,4.283574,1.212279,2.718617,-0.009159,27.757126,-14.283342,13.2428,0.346363,-0.117247,0.919122,0.146633
-16.258926,5.24944,-0.953971,1.015041,2.642621,-0.015178,27.408693,-14.322975,13.68212,0.337112,-0.117478,0.923244,0.14204
-14.971883,14.028129,-13.68898,0.930487,3.066405,-0.027957,27.035083,-14.06226,14.313614,0.326254,-0.118085,0.92774,0.137521
-12.830825,14.575989,-8.217469,0.61456,2.608939,-0.247803,26.699516,-14.239841,14.574536,0.316982,-0.11963,0.931257,0.134059
-11.659813,8.510451,-13.221408,-0.17272,2.227721,-0.278537,26.394984,-13.920693,14.573299,0.308713,-0.12205,0.933785,0.133587
-13.60853,5.687462,-0.518667,-0.490167,1.320114,-0.352767,26.371011,-14.111323,14.875452,0.303626,-0.124643,0.934963,0.13461
-12.957498,-2.511087,7.034784,0.011646,0.819519,-0.343353,26.243455,-14.071843,14.535955,0.3006,-0.12634,0.935793,0.13405
-12.959031,-1.004102,3.588366,-0.809307,0.34738,-0.548045,25.808102,-14.04645,14.322155,0.298996,-0.1295,0.935523,0.136483
-9.366285,1.02367,2.143745,-0.937844,-0.228359,-0.901387,26.008571,-14.004948,13.86544,0.299613,-0.133792,0.934312,0.139261
-6.587405,1.881283,-1.741341,-0.694907,-0.704725,-1.360452,26.222386,-13.94652,13.249095,0.302334,-0.139211,0.932402,0.140858
-4.440182,3.224156,-2.948585,-0.354333,-1.198655,-1.783382,26.594679,-14.05135,12.635629,0.307255,-0.145488,0.929814,0.140977
-3.709828,3.681496,-2.664165,-0.130202,-1.780057,-1.850894,27.124371,-13.828599,11.91586,0.314426,-0.151409,0.926534,0.140519
-4.423348,4.194734,-0.993395,-0.285492,-2.383604,-1.765714,27.379372,-13.589697,11.00404,0.323607,-0.156864,0.922373,0.141069
-5.0617,4.332176,-0.750712,-0.955711,-2.922446,-1.717392,27.952371,-13.032424,10.007758,0.334241,-0.16267,0.917044,0.144402
-5.008796,3.818004,-1.329644,-1.683902,-3.381655,-1.796274,28.216651,-12.464118,8.972375,0.346027,-0.169414,0.910447,0.1505
-4.651285,2.66093,-0.966405,-2.143508,-3.801494,-1.947757,28.70561,-12.618975,7.230583,0.358985,-0.17702,0.902634,0.158261
-4.811165,1.336779,-0.585734,-2.263682,-4.150204,-2.094335,28.893239,-11.835855,5.562749,0.373045,-0.185029,0.893815,0.166421
-5.237815,-0.137177,-0.626882,-2.086112,-4.42999,-2.16015,29.505369,-11.383059,4.070312,0.388097,-0.192749,0.884281,0.173997
-5.738815,-1.060319,-0.341408,-1.702995,-4.70083,-2.176507,30.00333,-10.588285,2.280419,0.404213,-0.199676,0.874194,0.180352
-6.132076,-1.490917,0.059359,-1.220676,-5.01058,-2.236061,30.058982,-10.097574,0.39769,0.421618,-0.205734,0.863505,0.185124
-6.466915,-1.190778,-0.346466,-0.902285,-5.306357,-2.274883,30.25727,-9.606664,-1.466924,0.440095,-0.211082,0.852101,0.188904
-7.030115,-0.215733,-1.04993,-0.743203,-5.567854,-2.288326,30.336429,-8.771244,-3.629679,0.45935,-0.215896,0.839898,0.192246
-7.5257,0.80965,-1.771473,-0.757292,-5.817641,-2.29619,30.058809,-7.971593,-5.353457,0.479154,-0.220449,0.826745,0.19572
-7.729745,1.392763,-2.622958,-0.891986,-6.014933,-2.325116,29.727683,-7.098912,-7.890449,0.499205,-0.225061,0.812584,0.199624
-8.234848,1.441109,-3.008729,-0.97911,-6.206237,-2.420911,29.184981,-6.573551,-10.006468,0.519531,-0.229848,0.79736,0.203654
-8.935803,0.963231,-3.309186,-0.973394,-6.418721,-2.47686,28.840322,-5.695678,-12.540665,0.540202,-0.234467,0.781095,0.2076
-9.548026,0.8317,-3.647763,-0.937024,-6.574892,-2.511364,28.01235,-4.992973,-14.833222,0.56101,-0.238813,0.763916,0.21135
-10.022435,1.170271,-3.368955,-0.79891,-6.68941,-2.544641,26.597998,-4.260798,-17.35942,0.581882,-0.242676,0.74598,0.214559
-10.996867,2.432067,-3.759538,-0.637723,-6.736531,-2.473971,25.190179,-3.375742,-19.870307,0.60253,-0.245738,0.727555,0.217335
-12.148588,3.729829,-4.229279,-0.538033,-6.823184,-2.324319,23.274684,-2.523013,-21.959697,0.622919,-0.247873,0.708583,0.220093
-12.776104,3.405926,-4.599363,-0.538732,-6.898641,-2.106758,21.054936,-1.817221,-24.104262,0.642838,-0.249144,0.68908,0.223284
-13.130474,2.359156,-5.636158,-0.733734,-6.811962,-1.923098,18.206539,-1.10902,-26.15832,0.661675,-0.250298,0.669266,0.2272
-13.614717,2.5447,-6.449687,-0.932096,-6.689215,-1.920904,15.338088,-0.435225,-27.906346,0.679496,-0.251877,0.649092,0.23135
-14.498034,2.891293,-7.027375,-0.480696,-6.541527,-2.095333,11.958915,-0.102866,-29.265352,0.697048,-0.25265,0.629073,0.233578
-15.38603,1.923272,-7.82784,0.093066,-6.399323,-2.193522,8.568699,0.367457,-30.453443,0.714418,-0.252055,0.609427,0.233824
-15.328766,1.639024,-7.724114,0.480097,-6.267442,-2.185187,4.773889,0.29074,-30.781551,0.731364,-0.250309,0.590099,0.232884
-15.239369,0.7918,-7.181049,0.832803,-6.081848,-2.206056,1.432885,0.20241,-31.054997,0.74777,-0.247609,0.571218,0.230739
-15.796302,0.520457,-6.873159,1.015195,-5.867142,-2.247829,-2.497416,-0.45832,-30.165988,0.763445,-0.244509,0.552733,0.227713
-16.717837,0.879256,-6.700739,1.15251,-5.608854,-2.333855,-5.939841,-1.100801,-29.540668,0.778321,-0.241271,0.534733,0.223753
-17.204655,0.929053,-6.879336,1.18807,-5.372638,-2.340069,-9.281886,-2.256066,-28.474979,0.792312,-0.238012,0.517181,0.219353
-16.245116,0.92192,-7.360241,1.114639,-5.170961,-2.18906,-12.067068,-3.319415,-26.847657,0.805292,-0.234725,0.500067,0.215271
-14.856408,1.25375,-7.942312,1.103989,-4.870866,-1.913325,-15.187574,-4.247519,-24.915308,0.817076,-0.231079,0.483913,0.211702
-13.845295,1.937344,-7.878136,1.238536,-4.538823,-1.619207,-17.552277,-5.196434,-22.893967,0.827786,-0.22663,0.469004,0.208435
-13.438637,2.464593,-7.760538,1.375799,-4.142509,-1.320625,-19.815386,-6.194423,-20.378347,0.837368,-0.221436,0.455594,0.20546
-13.572944,2.851847,-7.6549,1.341252,-3.714184,-1.041394,-21.45685,-7.190431,-17.944145,0.845703,-0.216142,0.443674,0.203034
-13.04322,3.151129,-7.39513,1.106853,-3.189871,-0.8693,-23.3686,-7.84291,-15.831055,0.852615,-0.211693,0.433352,0.201096
-11.477696,3.777453,-7.596334,0.601203,-2.578106,-0.774581,-24.387702,-8.528224,-13.442954,0.857876,-0.209219,0.424686,0.199795
-9.283444,4.85303,-8.990657,-0.040738,-1.892682,-0.666245,-25.341186,-8.999601,-11.671514,0.861318,-0.209233,0.41787,0.199345
-7.106933,5.037701,-9.986195,-0.474148,-1.180915,-0.520189,-26.144381,-9.476174,-9.882329,0.863092,-0.211012,0.413212,0.199504
-5.928021,4.750975,-10.079667,-0.533729,-0.44979,-0.265285,-26.728376,-9.738258,-8.688238,0.863422,-0.213147,0.411176,0.200012
-6.354012,5.355969,-9.769358,-0.315105,0.284436,0.055249,-27.178495,-10.174752,-7.336321,0.8625,-0.214601,0.412051,0.200637
-7.542142,6.841191,-9.723181,-0.247366,0.968328,0.396384,-27.716095,-10.242016,-6.601061,0.860255,-0.215812,0.415564,0.201727
-8.292991,8.178758,-9.719375,-0.590458,1.603725,0.655243,-28.404468,-10.304779,-5.884001,0.856454,-0.218247,0.421143,0.2037
-8.928942,8.579421,-9.886667,-1.234611,2.183238,0.856854,-28.708273,-10.453775,-5.940435,0.850917,-0.222949,0.428286,0.206896
-10.237218,7.757053,-7.029608,-1.935638,2.695865,1.055256,-29.042358,-10.474888,-5.660372,0.84362,-0.230029,0.436672,0.211446
-16.771433,4.610188,7.616497,-2.336665,2.891172,1.197933,-29.579862,-9.934789,-6.312906,0.835327,-0.238299,0.445403,0.216928
-23.334681,-3.934549,18.25304,-2.821918,2.44709,1.369562,-29.999779,-9.892619,-6.685627,0.827003,-0.247418,0.452323,0.224175
-23.335103,-6.256172,12.508924,-3.417843,1.993225,1.824507,-30.131581,-9.25264,-6.787528,0.818277,-0.257193,0.457569,0.23432
-15.978133,-1.264895,-1.226114,-3.133075,1.941378,1.891889,-30.671949,-8.870398,-7.459761,0.809632,-0.265815,0.462846,0.244157
-10.700907,-2.854585,-8.730518,-2.333946,2.130914,1.879745,-30.672576,-8.871121,-7.460036,0.801287,-0.272048,0.469358,0.252253
-12.490415,-7.767163,-7.220894,-1.413982,2.571825,2.046556,-32.061067,-7.05617,-8.081502,0.792779,-0.275472,0.478236,0.258663
-17.819522,-7.325623,-6.528479,0.32129,2.984808,1.978736,-32.086553,-6.797432,-8.262951,0.785274,-0.27401,0.489976,0.261125
-18.741238,-1.076583,-6.202657,0.989278,3.171194,1.942195,-32.845393,-5.96851,-8.714865,0.777995,-0.2707,0.502825,0.261939
-15.529511,3.48626,-3.753156,0.134287,3.22926,1.820816,-32.95785,-5.57921,-8.997063,0.769649,-0.270225,0.514734,0.263945
-13.309463,5.181427,-2.270843,-0.693402,3.143,1.728702,-32.860156,-4.880903,-9.711941,0.760534,-0.272278,0.525324,0.267373
-11.702604,6.620863,-1.868116,-1.027202,2.939202,1.825833,-32.928373,-4.028153,-10.430433,0.751221,-0.274853,0.534953,0.271935
-10.309964,8.215067,-2.337453,-1.402167,2.62084,1.880463,-32.811101,-3.147834,-11.446526,0.741961,-0.27802,0.5432,0.277728
-8.929799,8.624097,-3.39258,-1.855813,2.255142,1.879981,-32.893476,-2.772385,-12.060412,0.732839,-0.282053,0.549788,0.284825
-9.045726,10.902092,-4.190113,-1.738302,1.977164,1.862513,-32.674721,-1.786698,-12.56406,0.724332,-0.285426,0.555594,0.291875
-10.836546,7.457918,-4.318098,-1.731118,1.800119,1.835951,-32.941606,-0.819452,-12.806241,0.716131,-0.288589,0.560787,0.298984
-12.868589,2.549396,-6.939913,-1.56969,1.621779,1.671094,-32.889742,0.155386,-13.169586,0.708593,-0.291412,0.565404,0.305438
-12.846973,-0.684867,-9.485323,-0.584014,1.513595,1.368349,-32.988017,0.979736,-13.5692,0.702707,-0.292018,0.570497,0.308968
-11.895807,-4.197932,-8.107842,0.730431,1.493049,1.127594,-32.80372,1.625185,-13.79385,0.698608,-0.289508,0.576807,0.30891
-11.610968,-4.53818,-5.764855,2.094882,1.429136,1.088629,-32.769978,1.965217,-14.073458,0.696182,-0.283259,0.584493,0.305717
-11.858999,-3.044108,-3.994707,3.152164,1.312754,1.068615,-32.718796,2.166011,-14.529078,0.695109,-0.273998,0.593014,0.300138
-11.973761,-1.156767,-2.787485,3.602465,1.17414,1.022306,-32.416524,2.158518,-14.491752,0.694748,-0.2634,0.601513,0.293474
-11.529204,1.464772,-1.554772,3.39965,1.006548,1.01681,-32.704447,2.180189,-14.68933,0.694429,-0.253118,0.60919,0.287382
-11.035098,3.983507,-0.436885,2.541444,0.88923,0.987187,-32.420665,2.156699,-14.495249,0.69346,-0.245061,0.615456,0.283322
-10.947991,5.641425,0.497734,1.203905,0.758128,0.86825,-32.853479,2.184842,-14.70622,0.691602,-0.240748,0.619723,0.282258
-11.180272,5.613793,1.148569,-0.244682,0.636324,0.721714,-32.686875,2.350507,-14.828543,0.688818,-0.240562,0.621908,0.284411
-11.506675,3.896009,1.233763,-1.215998,0.507214,0.561768,-32.517469,2.517355,-14.948477,0.685594,-0.243229,0.6225,0.288607
-11.587555,1.567458,1.152715,-1.425493,0.368807,0.41694,-32.182403,3.004245,-15.173273,0.682645,-0.246644,0.622324,0.293045
-10.73877,-0.744447,1.446451,-0.901228,0.25592,0.363421,-32.29954,3.193357,-15.489607,0.680517,-0.248655,0.622377,0.296166
-9.201293,-1.963638,1.641873,-0.033086,0.282651,0.386887,-32.14741,3.809067,-15.396814,0.679133,-0.248329,0.623521,0.297209
-8.632511,-1.145905,1.110944,0.793197,0.353426,0.45227,-32.29951,3.967275,-15.398035,0.678295,-0.245732,0.625869,0.296342
-8.773854,0.119638,0.824605,1.411033,0.377748,0.500228,-32.130956,3.824153,-15.555307,0.67792,-0.241403,0.629029,0.294061
-8.977757,0.871303,0.950474,1.569966,0.420952,0.555505,-32.130278,3.824393,-15.554677,0.677498,-0.236557,0.632514,0.291485
-9.500159,1.508407,1.141464,1.387375,0.490048,0.581611,-31.66172,3.82776,-15.658441,0.676681,-0.2322,0.635972,0.289352
-10.15411,1.302351,1.498844,1.133594,0.554734,0.600421,-31.827577,3.971825,-15.498662,0.67543,-0.228532,0.639312,0.287832
-10.389925,1.558905,2.744441,0.849136,0.615196,0.616474,-31.646168,3.997316,-15.799532,0.67374,-0.225636,0.642489,0.287004
-10.280532,2.247846,3.29656,0.479822,0.660474,0.667835,-31.496547,4.147834,-15.764092,0.671539,-0.22363,0.645404,0.287193
-9.942799,2.837517,2.731198,0.108818,0.671564,0.699019,-31.491553,4.304351,-15.74093,0.66894,-0.222527,0.647948,0.288384
-9.265977,1.502257,1.691298,-0.179871,0.657867,0.750722,-31.491373,4.613989,-15.704191,0.666055,-0.222028,0.650165,0.290447
-8.476106,0.384555,0.552267,-0.069023,0.726655,0.796855,-31.624332,4.788158,-15.861371,0.663027,-0.221198,0.652715,0.292284
-8.305516,0.267023,-0.382236,0.024931,0.814681,0.878433,-31.305879,5.414885,-15.909714,0.659747,-0.220013,0.655657,0.29401
-7.8504,-1.362372,-0.850258,0.34411,0.908927,0.847964,-31.272136,5.75493,-16.189334,0.656519,-0.218186,0.659165,0.294752
-7.772323,-1.216867,-0.424572,0.817604,1.02529,0.848264,-31.252915,6.080351,-16.308462,0.653374,-0.215271,0.663496,0.294166
-8.170306,-0.743072,0.358935,1.268016,1.154301,0.869169,-31.069928,5.951697,-16.626122,0.650219,-0.21129,0.66866,0.292345
-8.822657,-0.289105,1.087935,1.590033,1.295559,0.913218,-31.050315,6.431978,-16.726496,0.646868,-0.206524,0.674543,0.289658
-8.911485,0.608795,1.515857,1.770068,1.441309,0.976041,-30.866918,6.458258,-17.025461,0.643152,-0.201285,0.680992,0.286514
-8.791644,1.909392,1.639852,1.686078,1.54102,0.990431,-30.698502,6.779421,-17.127897,0.639029,-0.196311,0.687545,0.283524
-8.881745,2.721661,1.597076,1.341082,1.637958,0.982116,-30.48299,6.990566,-17.726615,0.634333,-0.19231,0.693892,0.281341
-9.511898,3.038514,1.265404,0.874331,1.67993,0.959068,-30.316794,7.156496,-17.849949,0.629151,-0.18956,0.699758,0.280313
-10.339199,2.433215,0.917506,0.506316,1.709938,0.930102,-29.962064,7.65939,-18.229838,0.623603,-0.187814,0.705227,0.280178
-10.836633,1.401624,0.651193,0.38545,1.772498,0.934276,-29.761555,7.700901,-18.686651,0.617749,-0.186407,0.710674,0.280323
-10.795229,0.48601,0.698469,0.550047,1.887317,0.956048,-29.574258,8.5021,-18.889973,0.611629,-0.184655,0.716544,0.27996
-10.772213,0.194411,1.187175,0.893642,2.029586,0.972282,-29.657423,8.721263,-19.521449,0.605291,-0.182177,0.723081,0.278547
-11.074676,0.694239,1.617174,1.206378,2.191857,0.985628,-29.657335,9.185894,-19.466999,0.59864,-0.17908,0.730279,0.27614
-11.583679,1.201794,1.76313,1.392442,2.347168,0.978793,-29.138843,9.389849,-20.027869,0.591612,-0.175713,0.737948,0.273044
-12.022477,0.985902,1.764875,1.464035,2.514365,0.98528,-28.920503,9.756305,-20.60492,0.584064,-0.172316,0.745983,0.269604
-12.418753,0.266687,1.778116,1.446175,2.691333,1.029545,-28.283804,10.081323,-20.812437,0.575852,-0.168992,0.754319,0.266157
-12.805566,-0.531145,1.430734,1.386591,2.834905,1.054126,-28.182779,10.636609,-21.705564,0.567056,-0.16585,0.762808,0.262802
-13.399665,-1.149039,0.537962,1.285418,2.940894,1.042038,-27.678483,10.670561,-22.122274,0.557794,-0.163048,0.771288,0.259607
-14.275226,-1.864403,-0.390709,1.209394,3.030868,1.026015,-27.128111,11.369789,-22.949023,0.548129,-0.160523,0.779739,0.256503
-15.191648,-2.952592,-0.64651,1.216387,3.118927,1.042765,-26.789586,11.392124,-23.221945,0.538082,-0.15799,0.788252,0.253311
-15.778649,-3.748595,-0.095152,1.331843,3.197168,1.035442,-25.950915,12.068589,-23.84821,0.527767,-0.155283,0.796884,0.24965
-15.801874,-3.832705,0.744947,1.490418,3.277822,1.035876,-25.430031,12.427347,-24.386725,0.517186,-0.152295,0.805671,0.245395
-15.621277,-3.59221,1.551644,1.646193,3.326949,1.016191,-24.726355,12.967803,-25.208923,0.506447,-0.149067,0.814517,0.240527
-15.58089,-3.481159,2.164474,1.785258,3.331327,1.004895,-24.072346,13.308155,-25.574476,0.495669,-0.145569,0.823306,0.235135
-15.595532,-3.975607,2.783925,1.969121,3.328296,1.006198,-23.352997,13.24384,-26.627956,0.484886,-0.141673,0.832062,0.2291
-15.647726,-4.60635,3.040541,2.244096,3.314711,1.014358,-22.7129,13.878311,-26.792154,0.474169,-0.137182,0.840833,0.222137
-15.801911,-5.081549,3.576722,2.713774,3.341615,1.01443,-21.994629,13.969659,-27.832659,0.463482,-0.131806,0.849827,0.213554
-16.270627,-5.093483,4.551409,3.238264,3.447059,1.020726,-21.003172,14.486764,-28.452336,0.452559,-0.125504,0.859175,0.203117
-16.80501,-2.687106,4.273685,3.545022,3.530877,0.947198,-21.002928,14.486595,-28.451138,0.441394,-0.118926,0.868558,0.191403
-16.433611,-0.594894,4.211195,3.59581,3.597467,0.943573,-19.257509,15.035222,-30.404258,0.429853,-0.112274,0.877744,0.179403
-16.21543,2.089851,2.988095,3.220008,3.661528,1.005283,-19.47954,15.023495,-30.261318,0.417716,-0.106044,0.886459,0.168698
-16.982871,3.077931,1.78898,2.508038,3.638302,1.010444,-18.903807,15.002746,-32.036662,0.405217,-0.100905,0.894362,0.160418
-18.325866,2.285128,2.805552,1.850122,3.57388,0.995972,-18.57231,15.522631,-32.69464,0.392576,-0.096789,0.901487,0.154393
-19.297438,1.930467,3.552425,1.449045,3.456182,0.917567,-17.993589,16.080468,-33.688225,0.380149,-0.09347,0.907937,0.149667
-20.282185,1.636738,3.772091,1.338057,3.330296,0.660252,-17.75799,16.926472,-34.367064,0.368196,-0.091134,0.913844,0.144966
-21.437944,0.193471,5.097699,1.285752,2.920615,0.275186,-17.355452,17.629425,-35.207318,0.357838,-0.089999,0.918829,0.140017
-18.851517,2.679776,2.769079,0.974467,2.479355,0.07662,-17.153892,18.136309,-35.611049,0.349016,-0.089759,0.922834,0.136045
-15.953548,8.666602,-4.663699,0.794662,2.84711,0.100493,-17.188612,18.710446,-36.683095,0.338748,-0.089862,0.927141,0.132608
-14.222994,12.642539,-14.658899,0.498866,2.919301,-0.042189,-16.953027,19.556415,-37.361864,0.328143,-0.090898,0.931213,0.130009
-11.651296,9.782693,-6.783324,0.197031,2.43093,-0.274881,-17.036774,20.24059,-37.94133,0.319288,-0.092909,0.934315,0.128369
-11.262901,4.909032,-11.177676,0.039536,2.138552,-0.301272,-17.254526,21.097316,-38.674391,0.311429,-0.095059,0.936885,0.127366
-13.533264,4.519176,-2.327512,0.378929,1.389813,-0.446857,-17.521704,21.909115,-38.933583,0.306492,-0.09695,0.938608,0.125215
-12.54495,-1.018526,4.71302,1.169702,0.877241,-0.572564,-18.124394,22.69963,-38.918107,0.303786,-0.098102,0.940022,0.120204
-11.334908,-0.198203,1.66232,0.528083,0.404125,-0.79299,-19.166937,22.743853,-39.217233,0.302668,-0.100599,0.940465,0.117465
-7.779207,1.081792,0.492176,0.162465,-0.059514,-1.049432,-20.406506,23.20501,-38.981855,0.303222,-0.104257,0.940076,0.115947
-6.043941,0.946787,-2.332871,0.039566,-0.508609,-1.319401,-22.403928,23.534409,-38.87344,0.305489,-0.108846,0.938969,0.11474
-5.017074,1.461701,-2.620161,0.202333,-0.964472,-1.637528,-24.248991,24.013452,-38.722717,0.309627,-0.114198,0.937218,0.112746
-4.552399,1.92852,-2.471049,0.299396,-1.464558,-1.7013,-26.462828,24.129777,-38.012793,0.315647,-0.119439,0.934817,0.110536
-4.510171,3.535791,-1.712046,0.084795,-2.008699,-1.655275,-28.626907,23.980458,-37.812519,0.323507,-0.124531,0.931592,0.10941
-4.446712,4.423409,-0.720645,-0.526689,-2.552214,-1.654207,-31.19643,23.752355,-36.711412,0.333008,-0.130145,0.927308,0.110763
-4.266775,4.640743,-0.664143,-1.392052,-3.047971,-1.697007,-33.929224,24.129977,-35.387712,0.343824,-0.136802,0.921817,0.115426
-4.047175,3.5641,-1.400482,-2.081718,-3.486829,-1.785503,-37.031797,23.835028,-33.542126,0.355804,-0.144472,0.915143,0.122659
-3.773192,2.246369,-1.952004,-2.482977,-3.828553,-1.837147,-40.032306,23.956392,-31.14764,0.368686,-0.152672,0.907466,0.131407
-3.825576,1.037743,-1.922755,-2.492173,-4.11341,-1.877976,-42.914965,23.578505,-28.472145,0.38245,-0.160825,0.898998,0.140248
-4.023971,-0.194133,-1.522071,-2.231099,-4.382682,-1.891313,-45.642834,23.660654,-25.719774,0.397173,-0.168421,0.889891,0.148263
-4.348994,-1.073561,-1.312824,-1.864865,-4.655806,-1.908154,-48.14107,22.902334,-22.393808,0.412926,-0.175276,0.880179,0.155095
-4.927276,-1.570687,-0.962028,-1.467759,-4.936947,-1.940873,-50.971719,22.275245,-18.767341,0.429753,-0.181355,0.869839,0.160632
-5.795905,-1.237387,-1.046303,-1.147749,-5.249051,-1.992781,-53.349743,21.327045,-15.122258,0.447696,-0.186791,0.858724,0.165138
-6.761095,-0.74202,-1.105992,-0.868106,-5.535062,-2.03881,-55.758749,19.883139,-11.215364,0.466601,-0.191611,0.846813,0.16875
-7.568003,-0.413415,-1.642839,-0.742794,-5.814907,-2.052868,-57.756062,18.089689,-6.974871,0.486275,-0.195958,0.833991,0.172037
-8.097013,0.113563,-2.328323,-0.739711,-6.094002,-2.073503,-59.793144,16.094307,-2.276076,0.506579,-0.20006,0.820118,0.175384
-8.534615,0.084263,-3.004517,-0.762875,-6.368141,-2.129607,-60.880813,14.122716,2.058615,0.527448,-0.204067,0.805101,0.178793
-9.338925,-0.660451,-3.701276,-0.743285,-6.53926,-2.156189,-62.040152,11.316006,6.93493,0.548517,-0.207854,0.789156,0.182095
-10.285575,-0.69083,-4.20941,-0.603837,-6.656206,-2.207251,-62.106588,8.498295,11.779071,0.569694,-0.211264,0.772437,0.18482
-11.026139,-0.014087,-4.000635,-0.340946,-6.710689,-2.272269,-61.939189,4.698159,17.027833,0.590869,-0.214086,0.755152,0.186512
-12.134713,0.750554,-4.202137,-0.177006,-6.720795,-2.269783,-61.137902,0.911885,22.037187,0.611763,-0.216353,0.737392,0.187593
-13.514334,1.345051,-4.773643,-0.141251,-6.742136,-2.169506,-59.718914,-2.732005,27.133071,0.632211,-0.218066,0.719134,0.188687
-14.954891,1.158182,-5.221223,-0.056126,-6.734305,-2.04229,-57.046462,-6.825826,31.848326,0.652141,-0.219052,0.700528,0.189709
-16.113265,2.733692,-6.089556,0.10317,-6.708308,-1.929243,-54.398884,-11.093478,36.711152,0.67157,-0.219182,0.681684,0.190418
-16.719877,4.564852,-7.23008,0.11826,-6.653623,-1.931054,-50.315754,-14.866038,41.156471,0.69038,-0.219158,0.662498,0.190898
-16.517223,3.71537,-7.696132,0.003037,-6.528889,-2.018392,-45.429471,-18.767837,45.202565,0.708341,-0.219609,0.643015,0.191197
-15.554653,2.030239,-7.632047,0.128555,-6.354936,-2.072431,-39.703314,-22.301808,48.584719,0.725526,-0.219826,0.62362,0.190752
-14.817319,1.158914,-7.419505,0.509075,-6.171495,-2.061263,-33.625886,-25.489276,51.568104,0.742107,-0.218931,0.604629,0.189128
-15.265902,1.475213,-7.176585,0.807869,-5.987926,-2.018454,-26.375055,-27.982068,53.654531,0.758016,-0.217067,0.586052,0.186648
-16.509003,1.879257,-7.024864,0.873245,-5.823489,-2.007014,-19.204523,-29.62728,55.167599,0.773145,-0.214974,0.567671,0.183801
-17.101624,1.228068,-7.309306,0.80262,-5.637437,-2.006381,-11.632779,-30.57417,55.848878,0.787367,-0.213106,0.549482,0.180854
-16.646087,0.912476,-7.770594,0.781117,-5.375951,-1.932724,-4.27981,-30.973347,55.756432,0.800547,-0.211219,0.531859,0.177867
-15.656325,1.467349,-8.208721,0.884779,-5.091001,-1.80274,3.022846,-30.971572,54.73653,0.812753,-0.208837,0.515055,0.174753
-14.330202,2.444281,-8.678283,0.972731,-4.764372,-1.571951,9.766753,-30.590214,53.189653,0.823875,-0.205847,0.499322,0.171855
-13.01087,3.333614,-8.496732,0.953911,-4.379716,-1.302123,16.141758,-29.817158,50.839121,0.833758,-0.202577,0.484854,0.169492
-12.21962,3.556309,-8.140154,0.809364,-3.9112,-1.029792,21.790291,-28.680969,48.109643,0.842218,-0.199513,0.471893,0.16787
-11.693041,3.737382,-8.137221,0.571949,-3.387031,-0.798033,26.794307,-27.585554,45.795713,0.849192,-0.197104,0.460579,0.167003
-10.814833,4.23244,-8.708408,0.290824,-2.805347,-0.590492,30.651497,-26.861498,42.638137,0.854638,-0.195603,0.451102,0.166857
-9.335098,4.752012,-9.585348,-0.015226,-2.208503,-0.429768,34.03812,-25.83001,39.618427,0.858609,-0.195211,0.443497,0.167315
-7.800553,4.694683,-10.42839,-0.293713,-1.577333,-0.307073,37.106323,-25.427129,36.64671,0.861145,-0.195941,0.437896,0.168177
-6.804226,4.476295,-10.995137,-0.430587,-0.884356,-0.18714,39.376741,-24.719118,33.928392,0.862288,-0.197377,0.434618,0.169141
-6.38364,4.695602,-11.113918,-0.432696,-0.189193,0.012019,41.311919,-24.059568,31.659979,0.862109,-0.198939,0.433831,0.170242
-6.632908,5.567041,-10.632352,-0.460979,0.461827,0.256725,42.757721,-23.546977,29.463074,0.860636,-0.200613,0.435404,0.171708
-7.201289,6.241759,-10.236353,-0.698845,1.066202,0.494253,43.854194,-23.408694,27.836972,0.857773,-0.203083,0.439024,0.173899
-7.85225,7.066644,-9.673876,-1.168201,1.611218,0.718939,44.289474,-23.606631,26.5703,0.853405,-0.207101,0.444306,0.177207
-8.262477,6.516434,-9.08421,-1.748172,2.025673,0.898567,45.457602,-23.679594,25.570679,0.847637,-0.213006,0.450667,0.181766
-10.110821,5.624118,-5.056222,-2.41291,2.432112,1.109576,46.165015,-23.761577,24.67799,0.840308,-0.220994,0.458001,0.187826
-17.918349,-4.999794,15.490502,-2.66383,2.278481,1.076806,46.169643,-23.76417,24.680134,0.832884,-0.229705,0.464521,0.194319
-23.359974,-13.012547,20.330102,-3.194454,1.56023,0.890616,46.037971,-24.501756,22.067859,0.826249,-0.239885,0.468034,0.201772
-20.282014,-3.132702,10.252877,-3.569599,1.130273,1.337143,46.152713,-24.597354,21.056612,0.819503,-0.250065,0.470172,0.211709
-12.062129,-2.690518,-5.078248,-3.339231,1.151876,1.46435,46.58924,-25.09004,19.369871,0.812637,-0.259231,0.472581,0.221556
-10.022897,-4.882256,-7.797194,-2.808992,1.398001,1.614962,46.616679,-25.145427,17.560534,0.805548,-0.266592,0.47628,0.230606
-12.637959,-8.371264,-3.74315,-1.197585,1.923409,1.717834,46.86284,-25.480672,16.248653,0.798933,-0.269121,0.483111,0.236396
-18.022858,-5.255482,-1.974034,0.225683,2.306572,1.558869,46.803389,-25.38236,15.27711,0.793138,-0.267827,0.492225,0.23857
-18.721108,-0.61107,-3.594417,0.135588,2.372122,1.485542,46.686675,-25.659614,14.904815,0.787092,-0.266981,0.501321,0.240593
-15.386333,0.039046,-2.739368,-0.794004,2.303701,1.479432,46.554336,-25.642147,14.728333,0.780116,-0.268907,0.509262,0.244458
-12.903039,-0.505199,0.797568,-0.793579,2.21418,1.420563,46.63576,-25.876552,13.898599,0.773277,-0.27083,0.516805,0.248207
-11.566954,0.831684,1.371206,-0.12226,2.105351,1.49487,46.337734,-26.026725,13.843803,0.767208,-0.270437,0.524689,0.250911
-10.670496,3.497674,2.068156,0.12363,1.807477,1.509559,46.554688,-25.97013,13.228523,0.76192,-0.268959,0.531886,0.253446
-9.743215,15.198088,-1.12531,0.337747,1.363893,1.450678,46.263377,-26.254632,12.994192,0.757779,-0.266506,0.537874,0.255808
-8.687977,23.928837,-6.713023,0.081766,1.309822,1.548195,46.12638,-26.234418,12.816493,0.753337,-0.264534,0.543511,0.259036
-10.675856,12.424537,-9.600347,-2.087289,1.406053,1.795593,45.84667,-26.525839,12.584996,0.746117,-0.26849,0.547433,0.267469
-14.935723,-1.836743,-7.009608,-2.332749,1.288492,1.497742,45.6277,-26.909101,11.699691,0.739087,-0.273634,0.55036,0.275641
-16.346847,-6.301554,-4.909459,-0.189769,1.336439,0.955458,45.353318,-27.023542,11.325687,0.734757,-0.273783,0.555098,0.277561
-14.212242,-5.965448,-6.008872,1.057944,1.363873,0.814944,44.555283,-27.184223,11.528604,0.731817,-0.270672,0.56109,0.27633
-11.268741,-6.383319,-4.89305,2.258674,1.279448,0.783689,44.350739,-27.067999,12.002922,0.730305,-0.264082,0.568058,0.272443
-9.378239,-6.2191,-1.726096,3.364786,1.105447,1.016231,44.104595,-27.467365,12.898664,0.72996,-0.253594,0.575857,0.266903
-8.635657,-0.357751,-0.657608,3.765735,1.032158,1.18532,43.892982,-27.216999,13.552374,0.729836,-0.241448,0.583904,0.260955
-8.309383,5.744636,0.545368,3.142213,0.903333,1.165202,43.452066,-27.480785,14.762139,0.729283,-0.230943,0.590805,0.256439
-9.444069,8.024863,2.220121,1.387809,0.759201,0.962606,43.40631,-27.838698,15.201443,0.7276,-0.225732,0.595287,0.255496
-11.414978,8.460247,2.596629,-0.961518,0.637868,0.738524,43.063099,-28.037167,15.623561,0.724319,-0.227588,0.596857,0.259475
