PacketCounter,SampleTimeFine,Quat_W,Quat_X,Quat_Y,Quat_Z,Acc_X,Acc_Y,Acc_Z,Gyr_X,Gyr_Y,Gyr_Z,Mag_X,Mag_Y,Mag_Z
0,817012152,0.623814,-0.147706,-0.742834,-0.192975,0,0,0,0,0,0,-0.462402344,-0.354492188,0.888427734
1,817020485,0.623777,-0.147815,-0.742819,-0.193068,9.674743652,0.919878304,-1.507564187,-1.799323082,-0.99872458,0.540524364,-0.462402344,-0.352539063,0.888916016
2,817028818,0.623723,-0.147927,-0.742819,-0.193156,9.636590004,0.92233187,-1.59197557,-1.77122426,-1.330454588,0.534991682,-0.463867188,-0.354492188,0.890380859
3,817037151,0.623669,-0.148031,-0.742823,-0.193232,9.705526352,0.940515757,-1.697299361,-1.74135828,-1.106176257,0.285970122,-0.462402344,-0.354980469,0.889892578
4,817045484,0.623657,-0.148134,-0.742783,-0.193351,9.739346504,0.954709351,-1.623413682,-2.02524066,-0.458597273,0.371829033,-0.462890625,-0.354980469,0.891601563
5,817053817,0.623646,-0.148252,-0.742743,-0.193444,9.683994293,0.911459088,-1.563503385,-2.038637161,-0.321100026,0.507251501,-0.461914063,-0.352539063,0.889404297
6,817062150,0.623637,-0.148331,-0.74271,-0.193542,9.668719292,0.897066534,-1.538698196,-1.58001399,-0.47035414,0.303362161,-0.4609375,-0.35546875,0.889892578
7,817070483,0.623611,-0.148383,-0.742707,-0.193598,9.725570679,0.923782527,-1.474751711,-0.893527031,-0.921190321,0.281077802,-0.463378906,-0.35546875,0.890380859
8,817078816,0.623601,-0.148436,-0.7427,-0.193617,9.799602509,0.945591509,-1.520300984,-0.632338583,-0.554625094,0.397340834,-0.461914063,-0.354980469,0.889404297
9,817087149,0.62369,-0.148477,-0.742611,-0.193641,9.81860733,0.92471236,-1.652399659,-0.605264366,1.182929277,0.692160666,-0.463867188,-0.354003906,0.890380859
10,817095482,0.623882,-0.148496,-0.742428,-0.193707,9.784173965,0.873475194,-1.730658174,-0.726522088,2.966627836,0.797025323,-0.463867188,-0.354492188,0.889404297
11,817103815,0.624098,-0.148508,-0.742234,-0.193749,9.775443077,0.904176474,-1.681113362,-0.534748495,3.458062887,0.831502199,-0.462890625,-0.355957031,0.888427734
12,817112148,0.624295,-0.148488,-0.74206,-0.193794,9.777817726,0.925185859,-1.572264194,-0.152507141,3.003205061,0.584094226,-0.462402344,-0.35546875,0.888916016
13,817120481,0.624429,-0.148461,-0.741952,-0.193797,9.758663177,0.950039446,-1.494273782,0.253516912,1.923283339,0.359149992,-0.463867188,-0.35546875,0.886962891
14,817128814,0.624526,-0.14845,-0.741857,-0.193856,9.76458931,0.978108346,-1.418594718,-0.36487478,1.304238439,0.125010267,-0.463378906,-0.355957031,0.889404297
15,817137147,0.624602,-0.148452,-0.741777,-0.193916,9.769952774,0.996168971,-1.406341791,-0.491870195,0.932370901,0.160511613,-0.462890625,-0.35546875,0.885986328
16,817145480,0.624651,-0.148441,-0.741734,-0.193934,9.755460739,1.040695667,-1.443007231,-0.048205994,0.493138075,0.016021704,-0.465332031,-0.35546875,0.886962891
17,817153813,0.624687,-0.148411,-0.7417,-0.193967,9.744847298,1.027691841,-1.44113338,0.104672574,0.157361045,-0.129403114,-0.463867188,-0.35546875,0.886962891
18,817162146,0.624698,-0.148427,-0.741675,-0.194016,9.73069191,1.010632277,-1.403151751,-0.612077773,-0.057657644,-0.123486221,-0.462402344,-0.354492188,0.886474609
19,817170479,0.624703,-0.148465,-0.741644,-0.19409,9.692080498,0.997735798,-1.413237572,-1.107508302,-0.057017285,-0.107784696,-0.461914063,-0.354980469,0.887451172
20,817178812,0.624702,-0.14851,-0.741606,-0.194203,9.663455009,0.98402375,-1.387086749,-1.452557683,-0.223919675,-0.15097031,-0.464355469,-0.354003906,0.888427734
21,817187145,0.624681,-0.148565,-0.741589,-0.194292,9.646152496,0.921651065,-1.363059759,-1.443234205,-0.458930284,-0.165877804,-0.465332031,-0.354492188,0.887939453
22,817195478,0.62465,-0.148612,-0.741577,-0.1944,9.593914986,0.896508753,-1.349061966,-1.41411078,-0.766582847,-0.219616443,-0.463378906,-0.354003906,0.886474609
23,817203811,0.624593,-0.148672,-0.74159,-0.194494,9.572515488,0.846271098,-1.360996485,-1.479657412,-1.095879436,-0.321842879,-0.465332031,-0.353515625,0.888427734
24,817212144,0.624524,-0.148718,-0.741608,-0.194607,9.607681274,0.814189553,-1.355993867,-1.445257545,-1.395950079,-0.42780894,-0.462402344,-0.357421875,0.885009766
25,817220477,0.624434,-0.148762,-0.741644,-0.194724,9.632178307,0.797525406,-1.418085814,-1.464468122,-1.753908992,-0.587359965,-0.46484375,-0.354980469,0.886474609
26,817228810,0.624329,-0.148799,-0.741702,-0.194812,9.698013306,0.794351757,-1.43754375,-1.344926834,-1.947347999,-0.685488224,-0.462402344,-0.356445313,0.885986328
27,817237143,0.624222,-0.148826,-0.741761,-0.194909,9.727397919,0.801929235,-1.448534131,-1.084814072,-2.118860722,-0.678393006,-0.462402344,-0.354980469,0.886962891
28,817245476,0.624099,-0.148859,-0.741836,-0.194995,9.748197556,0.843816817,-1.452071786,-1.100233912,-2.242013931,-0.850648701,-0.464355469,-0.356933594,0.887451172
29,817253809,0.623982,-0.148879,-0.741908,-0.19508,9.749119759,0.891976893,-1.470846772,-1.052668095,-2.13361454,-0.917732418,-0.462402344,-0.354492188,0.889892578
30,817262142,0.623866,-0.148877,-0.741978,-0.195184,9.758350372,0.909645259,-1.47173965,-0.903490901,-2.217373133,-1.079640031,-0.462890625,-0.357910156,0.889404297
31,817270475,0.623754,-0.148887,-0.742054,-0.195251,9.77271843,0.938241899,-1.488627315,-0.708925128,-2.140607357,-0.865863562,-0.464355469,-0.357421875,0.888916016
32,817278808,0.623668,-0.148886,-0.742107,-0.195322,9.742202759,0.950138867,-1.49161756,-0.557468176,-1.831699491,-0.672860265,-0.462890625,-0.357910156,0.887451172
33,817287141,0.623587,-0.148904,-0.74216,-0.195363,9.744646072,0.965789795,-1.510321617,-0.385238111,-1.697250605,-0.434878528,-0.462402344,-0.357910156,0.887939453
34,817295474,0.623535,-0.148897,-0.742198,-0.195393,9.76581955,0.95144254,-1.508384347,-0.054660775,-1.424049139,-0.263058215,-0.463378906,-0.357910156,0.888427734
35,817303807,0.623495,-0.148883,-0.742232,-0.195402,9.757292747,0.943502903,-1.497018456,0.239531502,-1.280839801,-0.099229544,-0.461425781,-0.357910156,0.888427734
36,817312140,0.623452,-0.148884,-0.742271,-0.195389,9.761013031,0.895607471,-1.520014882,0.23776412,-1.271772385,-0.002151596,-0.46484375,-0.357421875,0.891601563
37,817320473,0.623431,-0.148866,-0.742294,-0.195383,9.774717331,0.885843813,-1.547910929,0.427206993,-1.019036651,0.0529062,-0.463378906,-0.358886719,0.888427734
38,817328806,0.623424,-0.148846,-0.742315,-0.195341,9.769431114,0.870007813,-1.528927565,0.631096303,-0.763355374,0.184486508,-0.463867188,-0.358398438,0.888916016
39,817337139,0.623412,-0.148833,-0.742338,-0.195301,9.76581192,0.867661297,-1.529177666,0.766800523,-0.823190272,0.182181239,-0.463378906,-0.35546875,0.887939453
40,817345472,0.623408,-0.148804,-0.742359,-0.195257,9.780218124,0.884119987,-1.516066551,0.940541804,-0.883665562,0.318628281,-0.462890625,-0.358886719,0.889404297
41,817353805,0.623405,-0.148762,-0.742387,-0.195191,9.769495964,0.892281711,-1.513141155,1.050759912,-0.764712989,0.175265387,-0.46484375,-0.356933594,0.889404297
42,817362138,0.623413,-0.148713,-0.742404,-0.19514,9.781977654,0.901823282,-1.510952234,1.187027693,-0.693095565,0.212995157,-0.463378906,-0.358398438,0.889892578
43,817370471,0.623426,-0.148664,-0.742422,-0.195068,9.758029938,0.911000729,-1.476018071,1.259823322,-0.516997695,0.200777158,-0.462890625,-0.357421875,0.888427734
44,817378804,0.623451,-0.148596,-0.742427,-0.195016,9.721385956,0.898540139,-1.451011419,1.37516427,-0.359547049,0.102751516,-0.461914063,-0.358886719,0.889404297
45,817387137,0.62348,-0.148521,-0.742435,-0.19495,9.741292,0.931178272,-1.45181942,1.593218207,-0.349890411,0.15477401,-0.462402344,-0.356445313,0.889404297
46,817395470,0.623497,-0.14844,-0.742463,-0.194854,9.734384537,0.905723035,-1.418175578,1.671572208,-0.531648993,0.070631251,-0.460449219,-0.358398438,0.888916016
47,817403803,0.623486,-0.148365,-0.742504,-0.194789,9.727660179,0.912272513,-1.415318847,1.595472336,-1.045342565,-0.035245188,-0.462402344,-0.357910156,0.888427734
48,817412136,0.623457,-0.148295,-0.742567,-0.194694,9.734395027,0.933092713,-1.436947584,1.729025006,-1.307222605,-0.033196051,-0.464355469,-0.358398438,0.888427734
49,817420469,0.623433,-0.148207,-0.742631,-0.194597,9.770534515,0.93319267,-1.421128869,1.806379676,-1.229841828,-0.181886673,-0.464355469,-0.357421875,0.889404297
50,817428802,0.623422,-0.148124,-0.742678,-0.194516,9.73522377,0.968335569,-1.432961106,1.844724417,-1.105868936,0.012845538,-0.461914063,-0.357421875,0.890380859
51,817437135,0.623396,-0.14806,-0.742735,-0.194429,9.705922127,0.956071377,-1.409919024,1.7552284,-1.208812714,-0.043825958,-0.462402344,-0.357421875,0.890380859
52,817445468,0.623352,-0.14799,-0.7428,-0.194375,9.697002411,0.926865578,-1.346909046,1.427827001,-1.586340666,-0.215492547,-0.463378906,-0.358886719,0.888916016
53,817453801,0.623268,-0.147937,-0.742896,-0.194317,9.699491501,0.893966556,-1.336029887,1.187206984,-2.125213146,-0.39994064,-0.464355469,-0.357421875,0.889404297
54,817462134,0.623167,-0.147859,-0.743007,-0.194275,9.722046852,0.896102726,-1.351126552,1.379877329,-2.514011621,-0.643275917,-0.460449219,-0.357910156,0.889404297
55,817470467,0.623037,-0.147749,-0.743154,-0.194215,9.682495117,0.89121598,-1.424725533,1.878253222,-3.060029507,-0.97600472,-0.463867188,-0.355957031,0.890380859
56,817478800,0.622888,-0.14765,-0.743314,-0.194158,9.721384048,0.903528512,-1.538143039,2.312337637,-3.140279293,-1.287858129,-0.461425781,-0.357421875,0.891601563
57,817487133,0.622753,-0.147501,-0.74347,-0.194105,9.747425079,0.91465956,-1.523217082,2.168309212,-3.07711482,-1.451404929,-0.460449219,-0.355957031,0.891113281
58,817495466,0.622583,-0.147377,-0.743647,-0.194065,9.722348213,0.914031208,-1.50451386,1.769879699,-3.467399359,-1.694176912,-0.4609375,-0.357910156,0.891113281
59,817503799,0.622385,-0.147249,-0.743844,-0.194043,9.744394302,0.900241613,-1.543429255,1.867162704,-3.849691868,-2.030927181,-0.4609375,-0.356445313,0.891113281
60,817512132,0.622149,-0.147065,-0.744074,-0.194056,9.775405884,0.894319296,-1.453858256,1.778639555,-4.520502567,-2.795768261,-0.461914063,-0.357910156,0.894042969
61,817520465,0.62187,-0.146918,-0.744325,-0.194102,9.853450775,0.93815738,-1.469001055,1.193328857,-4.988781929,-3.101448536,-0.461914063,-0.358398438,0.892089844
62,817528798,0.62163,-0.146736,-0.744544,-0.194168,9.884476662,0.994991064,-1.636507034,1.174630284,-4.352653027,-3.223551512,-0.461425781,-0.358398438,0.894042969
63,817537131,0.621474,-0.146539,-0.744691,-0.194251,9.810705185,1.02832675,-1.771329045,1.031446815,-2.700611353,-3.314482212,-0.4609375,-0.358398438,0.895019531
64,817545464,0.621383,-0.146317,-0.744784,-0.194352,9.71205616,1.072901487,-1.742256999,1.125297427,-1.576735497,-3.271629333,-0.4609375,-0.359375,0.895019531
65,817553797,0.621309,-0.146082,-0.744872,-0.194429,9.662924767,1.126585007,-1.670913696,1.504311323,-1.374997616,-3.158004522,-0.461425781,-0.361328125,0.893066406
66,817562130,0.621214,-0.145858,-0.744986,-0.194465,9.60959816,1.11917448,-1.6827631,1.833607674,-1.769840837,-2.981650114,-0.4609375,-0.360839844,0.893066406
67,817570463,0.621108,-0.145664,-0.745095,-0.194533,9.636133194,1.140815973,-1.653764963,1.242072582,-2.006209373,-2.778965235,-0.459472656,-0.361816406,0.893554688
68,817578796,0.621013,-0.145532,-0.745179,-0.194609,9.655148506,1.175114393,-1.652268529,0.529049158,-1.661287904,-2.369060516,-0.458496094,-0.359863281,0.893554688
69,817587129,0.620939,-0.145391,-0.745265,-0.194624,9.649552345,1.218752742,-1.646392822,1.199732304,-1.555911183,-1.871145725,-0.459472656,-0.359863281,0.897460938
70,817595462,0.620882,-0.145232,-0.745353,-0.194589,9.659145355,1.156687856,-1.656577468,2.036242008,-1.625402689,-1.379505873,-0.458984375,-0.361816406,0.895507813
71,817603795,0.620823,-0.145119,-0.745441,-0.194524,9.66817379,1.12040484,-1.644598961,1.996463299,-1.650914431,-0.87569952,-0.461914063,-0.361816406,0.895996094
72,817612128,0.620764,-0.145024,-0.745519,-0.194481,9.68928051,1.079303622,-1.613467932,1.533946991,-1.747889757,-0.638486028,-0.461425781,-0.363769531,0.895996094
73,817620461,0.620663,-0.144948,-0.745634,-0.194421,9.688546181,1.018258214,-1.565371871,1.389354587,-2.415294409,-0.670273304,-0.459472656,-0.362304688,0.896972656
74,817628794,0.620514,-0.144872,-0.74578,-0.194395,9.701776505,0.994114459,-1.542865992,1.194455862,-3.275984049,-0.963607669,-0.458496094,-0.361328125,0.896972656
75,817637127,0.620335,-0.14481,-0.745944,-0.19438,9.671305656,0.951975644,-1.568544388,0.966079235,-3.740216017,-1.015348315,-0.462890625,-0.360839844,0.896484375
76,817645460,0.620143,-0.14474,-0.746126,-0.19435,9.680701256,0.935159087,-1.604455829,0.995843112,-3.885679722,-1.252151847,-0.458496094,-0.362304688,0.896972656
77,817653793,0.619953,-0.144661,-0.746302,-0.194339,9.698242188,0.940040767,-1.592758656,0.814442992,-3.757761717,-1.463059425,-0.459472656,-0.36328125,0.897949219
78,817662126,0.619758,-0.144581,-0.746468,-0.194382,9.718699455,0.939235151,-1.579283357,0.48947522,-3.762346506,-1.757725596,-0.45703125,-0.360839844,0.8984375
79,817670459,0.61955,-0.144492,-0.746651,-0.194407,9.72720623,0.918326139,-1.573553085,0.626998067,-3.885577202,-1.949448228,-0.459472656,-0.36328125,0.897949219
80,817678792,0.61934,-0.144377,-0.746833,-0.194465,9.741532326,0.899173081,-1.583150983,0.646823525,-3.938803673,-2.31032753,-0.458984375,-0.362304688,0.8984375
81,817687125,0.619115,-0.144257,-0.747033,-0.194502,9.719567299,0.916379333,-1.599041224,0.893719137,-4.102247715,-2.467547417,-0.458984375,-0.361328125,0.8984375
82,817695458,0.618873,-0.144123,-0.747246,-0.194552,9.712845802,0.920521796,-1.599008799,0.901300967,-4.488433361,-2.581812382,-0.456054688,-0.363769531,0.900390625
83,817703791,0.618615,-0.143978,-0.747474,-0.194602,9.715364456,0.963351071,-1.64932704,1.025043368,-4.747547626,-2.777377129,-0.458984375,-0.36328125,0.900390625
84,817712124,0.618357,-0.143837,-0.747703,-0.194646,9.705385208,1.024457693,-1.634790301,0.987800241,-4.626494408,-2.87614584,-0.458007813,-0.363769531,0.899902344
85,817720457,0.618096,-0.143696,-0.747932,-0.194703,9.661644936,1.070348859,-1.647372603,0.901557148,-4.782126904,-2.813800812,-0.457519531,-0.364746094,0.900390625
86,817728790,0.617822,-0.143568,-0.748174,-0.194738,9.643442154,1.120328665,-1.693528175,0.963825285,-4.954100609,-2.732296228,-0.45703125,-0.366210938,0.901367188
87,817737123,0.617556,-0.143443,-0.748415,-0.194744,9.642041206,1.160209179,-1.704844713,1.019664288,-4.946595669,-2.416472435,-0.455566406,-0.364257813,0.900390625
88,817745456,0.6173,-0.143326,-0.748648,-0.194749,9.646028519,1.181339622,-1.719718456,1.261027217,-4.934787273,-2.098548651,-0.456054688,-0.365234375,0.899902344
89,817753789,0.617046,-0.143239,-0.748886,-0.194703,9.675323486,1.19084847,-1.703921199,1.465787411,-4.971210957,-1.57015264,-0.458007813,-0.366699219,0.905517578
90,817762122,0.616793,-0.143159,-0.749119,-0.194666,9.688383102,1.163830757,-1.727935076,1.390430212,-5.088012218,-1.369337082,-0.454589844,-0.366210938,0.903808594
91,817770455,0.616531,-0.143101,-0.749362,-0.194602,9.666082382,1.172311187,-1.712695241,1.339355469,-5.232014656,-1.132584691,-0.456054688,-0.364746094,0.904785156
92,817778788,0.616254,-0.14306,-0.749612,-0.194549,9.698148727,1.135118961,-1.721455216,1.204112291,-5.618636131,-0.911764324,-0.454589844,-0.365722656,0.905517578
93,817787121,0.615979,-0.143012,-0.749861,-0.194494,9.69151783,1.127722025,-1.733378053,1.303393126,-5.572325706,-0.967142284,-0.453613281,-0.366210938,0.906005859
94,817795454,0.615695,-0.142976,-0.750121,-0.194419,9.696811676,1.100907445,-1.752620816,1.265740275,-5.681237221,-0.914120853,-0.453613281,-0.364257813,0.905029297
95,817803787,0.615411,-0.142925,-0.750384,-0.194341,9.710648537,1.097202182,-1.777183175,1.571061969,-5.810281277,-0.84521848,-0.453613281,-0.365234375,0.904296875
96,817812120,0.615124,-0.142889,-0.75065,-0.194248,9.712738037,1.105950594,-1.770517588,1.458871603,-5.806465626,-0.766557217,-0.452636719,-0.367431641,0.910400391
97,817820453,0.614844,-0.14284,-0.750917,-0.194141,9.683281898,1.116700411,-1.787079573,1.639964223,-5.751548767,-0.725139022,-0.455566406,-0.365722656,0.906982422
98,817828786,0.614567,-0.142787,-0.751176,-0.194053,9.697943687,1.137741446,-1.806036592,1.698518395,-5.722117901,-0.765839994,-0.455566406,-0.366455078,0.908935547
99,817837119,0.61428,-0.142739,-0.751447,-0.193949,9.690257072,1.133156896,-1.81565392,1.515479088,-5.856541157,-0.766531587,-0.452148438,-0.366455078,0.909423828
100,817845452,0.613993,-0.142712,-0.7517,-0.193895,9.715830803,1.132308125,-1.811332464,1.081958055,-5.786845207,-0.801571906,-0.452148438,-0.365478516,0.910400391
101,817853785,0.613712,-0.14268,-0.75195,-0.193836,9.714294434,1.124205947,-1.83006835,1.05572927,-5.557469845,-0.938223839,-0.451660156,-0.367431641,0.909912109
102,817862118,0.613455,-0.142639,-0.752173,-0.193815,9.698122978,1.157934189,-1.830123305,0.838315427,-5.118005753,-1.082098842,-0.450195313,-0.365478516,0.911865234
103,817870451,0.613207,-0.142611,-0.752383,-0.19381,9.682188034,1.132738948,-1.851617336,0.564627409,-4.915935516,-1.039476871,-0.450195313,-0.368896484,0.912841797
104,817878784,0.612973,-0.142591,-0.752579,-0.193801,9.648640633,1.135984302,-1.853788733,0.386941433,-4.549395561,-1.000696898,-0.450683594,-0.366943359,0.911376953
105,817887117,0.612745,-0.142564,-0.752763,-0.193826,9.592111588,1.110483527,-1.848234773,0.211176574,-4.434157372,-1.179228187,-0.449707031,-0.366943359,0.912841797
106,817895450,0.612484,-0.142546,-0.752978,-0.193829,9.520503998,1.154740691,-1.779824615,0.203261763,-4.963398457,-1.207250118,-0.44921875,-0.368896484,0.915283203
107,817903783,0.612209,-0.142531,-0.75321,-0.193811,9.549282074,1.156113505,-1.799876094,0.36872974,-5.301020145,-1.067242742,-0.450195313,-0.367919922,0.916259766
108,817912116,0.611943,-0.142538,-0.753419,-0.19383,9.575313568,1.113686085,-1.772191286,-0.025358092,-5.142288208,-0.924673796,-0.450195313,-0.368408203,0.913818359
109,817920449,0.611683,-0.142548,-0.753624,-0.193849,9.553865433,1.077094555,-1.853901505,-0.214339927,-4.885660172,-1.039733171,-0.44921875,-0.368408203,0.916259766
110,817928782,0.611427,-0.142546,-0.753822,-0.193889,9.590744972,1.108272552,-1.864882946,-0.185011625,-4.886888981,-1.140320182,-0.447753906,-0.366943359,0.916748047
111,817937115,0.611169,-0.14257,-0.754021,-0.19391,9.585473061,1.101719499,-1.886183619,-0.237367108,-4.849594593,-0.91322428,-0.44921875,-0.367919922,0.917236328
112,817945448,0.610913,-0.142559,-0.754224,-0.193934,9.613762856,1.096103668,-1.908521891,0.072219327,-4.924822807,-1.108993888,-0.446777344,-0.368408203,0.919433594
113,817953781,0.610633,-0.142543,-0.754448,-0.193954,9.73363018,1.097124577,-1.824017882,0.169707105,-5.352453232,-1.234093904,-0.446289063,-0.369384766,0.917236328
114,817962114,0.610297,-0.142556,-0.754716,-0.193963,9.78883934,1.084197402,-1.726022243,-0.112318434,-6.239499092,-1.246055603,-0.446777344,-0.370361328,0.918212891
115,817970447,0.610037,-0.142534,-0.754937,-0.193934,9.932168007,1.127112865,-2.043861628,0.772179604,-5.20350647,-0.821371675,-0.4453125,-0.369384766,0.918212891
116,817978780,0.609879,-0.142467,-0.755099,-0.193849,9.885212898,1.128594041,-2.1550138,1.620625377,-3.513401985,-0.573912501,-0.444824219,-0.369384766,0.918457031
117,817987113,0.609779,-0.142381,-0.755221,-0.193756,9.809599876,1.117126346,-2.056919575,1.931428552,-2.598845959,-0.398839265,-0.444824219,-0.368896484,0.919921875
118,817995446,0.609698,-0.142296,-0.755328,-0.193655,9.735439301,1.183760524,-1.91265285,2.090851784,-2.35525465,-0.179171577,-0.444824219,-0.367431641,0.920410156
119,818003779,0.609603,-0.142214,-0.755454,-0.193521,9.628566742,1.288026929,-1.980258346,2.352450132,-2.6194911,-0.057068527,-0.447753906,-0.368896484,0.920410156
120,818012112,0.60948,-0.14216,-0.755592,-0.193411,9.615020752,1.299936652,-1.961616635,1.912115335,-3.163742304,0.044069286,-0.4453125,-0.368896484,0.920898438
121,818020445,0.609329,-0.142164,-0.755734,-0.193328,9.62374115,1.309903026,-1.892819643,0.968640685,-3.423470259,0.196320295,-0.444335938,-0.370361328,0.921386719
122,818028778,0.609178,-0.142174,-0.755869,-0.193271,9.616173744,1.278102517,-1.926346302,0.765417397,-3.479002476,0.198190153,-0.443847656,-0.368896484,0.922363281
123,818037111,0.609012,-0.142173,-0.756014,-0.193228,9.626832008,1.171162248,-1.960160613,0.705095828,-3.671236992,-0.090725616,-0.4453125,-0.367919922,0.922851563
124,818045444,0.608825,-0.142196,-0.75616,-0.193228,9.60741806,1.066458464,-1.961898923,-0.121257775,-3.725846529,-0.419407487,-0.444335938,-0.368408203,0.920898438
125,818053777,0.608624,-0.142214,-0.756308,-0.193267,9.56140995,1.002619505,-1.98249042,-0.363696545,-3.937855482,-0.67667681,-0.4453125,-0.369384766,0.922363281
126,818062110,0.608415,-0.142225,-0.75646,-0.193322,9.558390617,0.9838624,-1.962695837,-0.688971639,-3.871438026,-1.053513527,-0.442871094,-0.367919922,0.923828125
127,818070443,0.608212,-0.142223,-0.75661,-0.193375,9.517190933,1.018621802,-1.940501332,-0.572631836,-3.745210886,-1.159402609,-0.4453125,-0.369384766,0.925292969
128,818078776,0.608019,-0.142207,-0.75675,-0.193446,9.498041153,1.046508551,-1.987131715,-0.41756326,-3.645468712,-1.266290784,-0.444335938,-0.369384766,0.923339844
129,818087109,0.607828,-0.142169,-0.756904,-0.193472,9.500106812,1.058517098,-1.960645914,0.092249669,-3.612119198,-1.284400105,-0.444335938,-0.368896484,0.924316406
130,818095442,0.607658,-0.142118,-0.75704,-0.193512,9.511562347,1.075808287,-1.952634454,0.233230442,-3.341402531,-1.302816987,-0.442871094,-0.370361328,0.924316406
131,818103775,0.60748,-0.142052,-0.757193,-0.19352,9.51144886,1.118851542,-1.940263271,0.554381669,-3.432691574,-1.395002484,-0.444824219,-0.369384766,0.92578125
132,818112108,0.60731,-0.141956,-0.757349,-0.193513,9.533658981,1.123040795,-1.915131092,1.142817378,-3.47129178,-1.411036849,-0.442871094,-0.372314453,0.92578125
133,818120441,0.607135,-0.141835,-0.757522,-0.193475,9.617153168,1.129921675,-1.940992713,1.728153944,-3.664833307,-1.461522698,-0.443359375,-0.369873047,0.926269531
134,818128774,0.606956,-0.141712,-0.757707,-0.1934,9.683841705,1.143038034,-1.977000237,1.997103572,-3.70650816,-1.372180343,-0.444335938,-0.369873047,0.928222656
135,818137107,0.606794,-0.141594,-0.757876,-0.193336,9.725741386,1.16068244,-2.005106688,1.982682705,-3.563196421,-1.168521523,-0.44140625,-0.371337891,0.926269531
136,818145440,0.60664,-0.141471,-0.758042,-0.193256,9.758195877,1.170051694,-2.02837801,1.999946594,-3.318323851,-1.205482721,-0.441894531,-0.368896484,0.927246094
137,818153773,0.606507,-0.14136,-0.758185,-0.193196,9.770410538,1.183859944,-1.996981978,1.771826386,-2.936467171,-1.117600441,-0.444335938,-0.369873047,0.928222656
138,818162106,0.606365,-0.141274,-0.758324,-0.193157,9.759818077,1.19582963,-1.998930693,1.403391242,-3.129573107,-0.924801946,-0.442382813,-0.370849609,0.928222656
139,818170439,0.606245,-0.141205,-0.758448,-0.193099,9.751041412,1.222164035,-1.990642309,1.333694935,-2.762572289,-0.604752123,-0.442871094,-0.370849609,0.930664063
140,818178772,0.606134,-0.141131,-0.758565,-0.19304,9.733163834,1.213300824,-2.038280487,1.521524072,-2.686625957,-0.529625535,-0.440917969,-0.370849609,0.9296875
141,818187105,0.606045,-0.141056,-0.758673,-0.192951,9.704556465,1.210489392,-2.023987532,1.749003887,-2.338989258,-0.309957862,-0.440917969,-0.371337891,0.930175781
142,818195438,0.605963,-0.140988,-0.758768,-0.192887,9.688264847,1.209876895,-2.021407366,1.523265839,-2.237301111,-0.282268852,-0.44140625,-0.371826172,0.928222656
143,818203771,0.605891,-0.140929,-0.75885,-0.192831,9.645208359,1.211355448,-1.980309963,1.3524189,-2.035511971,-0.22394529,-0.442382813,-0.369873047,0.927734375
144,818212104,0.605818,-0.140889,-0.758927,-0.192789,9.620596886,1.220242262,-1.968594074,0.953297734,-1.885489345,-0.247817695,-0.440917969,-0.371826172,0.929199219
145,818220437,0.605751,-0.14084,-0.758998,-0.192755,9.621202469,1.243483782,-1.98354578,0.853863299,-1.723146439,-0.404832989,-0.442382813,-0.369873047,0.931152344
146,818228770,0.605693,-0.14079,-0.759053,-0.192757,9.606791496,1.22156477,-1.993070364,0.630609691,-1.567796111,-0.518688262,-0.439453125,-0.371337891,0.931640625
147,818237103,0.605649,-0.140736,-0.759099,-0.19275,9.587198257,1.239165664,-2.003017664,0.606532335,-1.208121181,-0.572093964,-0.439941406,-0.370361328,0.931152344
148,818245436,0.605636,-0.140679,-0.759116,-0.192768,9.584645271,1.231404781,-2.055076122,0.499029368,-0.73487252,-0.524605155,-0.441894531,-0.372314453,0.930175781
149,818253769,0.605652,-0.140635,-0.75911,-0.192773,9.610567093,1.195583224,-2.074289083,0.405819118,-0.154069632,-0.308830857,-0.439941406,-0.370849609,0.9296875
150,818262102,0.605711,-0.140607,-0.759061,-0.1928,9.655344963,1.190633416,-2.073974133,0.141147241,0.514756441,0.02101648,-0.440429688,-0.370361328,0.929199219
151,818270435,0.605817,-0.140598,-0.758964,-0.192858,9.671150208,1.175626755,-2.094109058,-0.395893604,1.410973072,0.175956994,-0.441894531,-0.372314453,0.931152344
152,818278768,0.605955,-0.14062,-0.758824,-0.192959,9.693246841,1.161851645,-2.05414319,-1.290368319,2.233292341,0.175214171,-0.440917969,-0.371826172,0.930664063
153,818287101,0.606103,-0.140673,-0.758657,-0.193112,9.677996635,1.146303415,-2.025452852,-2.001291275,2.44868207,0.278567612,-0.442382813,-0.373291016,0.928222656
154,818295434,0.606264,-0.140698,-0.758497,-0.193215,9.664088249,1.168817759,-2.046555519,-1.337088585,2.632182598,0.306384653,-0.441894531,-0.370361328,0.9296875
155,818303767,0.606425,-0.140688,-0.758353,-0.193282,9.651176453,1.148734808,-2.080828428,-0.590356886,2.529213905,0.20887129,-0.44140625,-0.373779297,0.927246094
156,818312100,0.606602,-0.14064,-0.758207,-0.193335,9.648456573,1.150232911,-2.093737125,-0.005968117,2.654646635,0.09314616,-0.44140625,-0.371337891,0.929199219
157,818320433,0.60676,-0.140584,-0.75808,-0.193379,9.622024536,1.130811214,-2.054776192,0.04222507,2.437489271,-0.133962467,-0.444824219,-0.372802734,0.927734375
158,818328766,0.606905,-0.140534,-0.757959,-0.193437,9.588305473,1.142234445,-2.036834478,-0.031787261,2.116798878,-0.104147471,-0.442382813,-0.371337891,0.92578125
159,818337099,0.607015,-0.140499,-0.757867,-0.193474,9.536398888,1.175133467,-1.932454944,-0.075049713,1.591886163,-0.055173066,-0.443359375,-0.372802734,0.924804688
160,818345432,0.607098,-0.140475,-0.757798,-0.1935,9.522192001,1.194775224,-1.987066627,0.102085523,0.91930759,0.164917231,-0.442871094,-0.371826172,0.927246094
161,818353765,0.607183,-0.140456,-0.757731,-0.193512,9.570261002,1.159990907,-1.906432986,0.208615124,0.87671119,0.336327702,-0.443359375,-0.370361328,0.92578125
162,818362098,0.607266,-0.140425,-0.757678,-0.193484,9.55245018,1.171499729,-1.988840818,0.614498317,0.852147162,0.372238845,-0.44140625,-0.370849609,0.92578125
163,818370431,0.607342,-0.140395,-0.757625,-0.193472,9.526957512,1.146815062,-2.003719091,0.578459084,0.643749714,0.37851432,-0.4453125,-0.371337891,0.925292969
164,818378764,0.607413,-0.14038,-0.757577,-0.19345,9.549546242,1.154561877,-1.974370599,0.355026126,0.657376647,0.460403144,-0.44140625,-0.370849609,0.924804688
165,818387097,0.607498,-0.140349,-0.757517,-0.193437,9.57906723,1.164046288,-2.027960062,0.377925217,0.962954342,0.279925168,-0.443847656,-0.370361328,0.927246094
166,818395430,0.607571,-0.140314,-0.75746,-0.193456,9.623942375,1.222492337,-1.919215083,0.28041181,0.715956271,0.071245991,-0.442871094,-0.370849609,0.924804688
167,818403763,0.60759,-0.140302,-0.757447,-0.193457,9.70374012,1.22359395,-1.771730542,0.030032689,-0.151328892,0.110871211,-0.441894531,-0.372314453,0.924316406
168,818412096,0.607699,-0.140275,-0.757377,-0.19341,9.857583046,1.284207106,-2.111211777,0.93454814,1.061005712,0.813700199,-0.443847656,-0.369384766,0.927246094
169,818420429,0.607951,-0.140222,-0.7572,-0.193349,9.858279228,1.253471494,-2.390647411,1.341993809,3.605907917,1.137540817,-0.442382813,-0.371337891,0.925292969
170,818428762,0.608255,-0.140164,-0.756981,-0.19329,9.747059822,1.262673855,-2.2406106,1.298859358,4.390676498,1.398883104,-0.4453125,-0.370849609,0.923828125
171,818437095,0.608537,-0.14012,-0.756786,-0.1932,9.683955193,1.309557199,-1.94557786,1.52869606,3.859079123,1.706945539,-0.442382813,-0.370361328,0.923339844
172,818445428,0.608735,-0.140127,-0.756653,-0.193091,9.582968712,1.287343144,-2.015801907,2.157012939,2.49199605,1.806994677,-0.444824219,-0.371826172,0.921875
173,818453761,0.608891,-0.140133,-0.756548,-0.193007,9.55245018,1.200971603,-2.009398699,1.032471418,1.679768562,1.673083425,-0.443847656,-0.372314453,0.923339844
174,818462094,0.609034,-0.140204,-0.756423,-0.192994,9.597867012,1.178919077,-1.945349216,-0.097052343,1.881045461,1.567834496,-0.446289063,-0.368896484,0.922851563
175,818470427,0.60914,-0.140359,-0.75629,-0.193068,9.508364677,1.153139472,-1.941199064,0.16858007,1.753896236,1.248092055,-0.443847656,-0.370361328,0.922363281
176,818478760,0.609256,-0.140337,-0.756208,-0.193038,9.48552227,1.102739334,-1.922026634,0.70076704,1.252113461,0.769874275,-0.446777344,-0.370849609,0.920898438
177,818487093,0.60933,-0.140335,-0.756155,-0.193016,9.499583244,1.076796174,-1.893014193,0.724101603,0.747333765,0.535503983,-0.446289063,-0.368896484,0.920410156
178,818495426,0.60937,-0.140309,-0.756132,-0.192995,9.492616653,1.075644493,-1.917541265,0.645850122,-0.002971251,0.339631945,-0.444824219,-0.371826172,0.921386719
179,818503759,0.609418,-0.140198,-0.756147,-0.19287,9.472066879,1.056703806,-1.934786797,0.715034127,-0.25419566,0.458814919,-0.4453125,-0.369384766,0.922851563
180,818512092,0.609453,-0.140161,-0.756136,-0.192827,9.484291077,1.07726109,-1.932083011,0.98498255,-0.179274008,0.368217438,-0.448242188,-0.368408203,0.921875
181,818520425,0.609484,-0.140114,-0.756139,-0.192753,9.483038902,1.07521534,-1.944493175,1.431720495,-0.356294036,0.489910692,-0.4453125,-0.368896484,0.920898438
182,818528758,0.609535,-0.13995,-0.756178,-0.192558,9.485157967,1.074993014,-1.936202407,1.860144258,-0.427399129,0.466422409,-0.4453125,-0.367919922,0.921875
183,818537091,0.609578,-0.139862,-0.756187,-0.192452,9.513316154,1.087816834,-1.907765627,2.145256042,-0.24909845,0.354513824,-0.446289063,-0.368408203,0.919921875
184,818545424,0.609698,-0.139505,-0.756239,-0.192123,9.558001518,1.112482429,-1.912732124,2.283572912,0.104672574,0.246729121,-0.443847656,-0.368408203,0.922851563
185,818553757,0.609751,-0.139419,-0.756237,-0.192023,9.584129333,1.116555452,-1.858086586,2.404497862,0.184921965,0.144784465,-0.445800781,-0.368896484,0.918212891
186,818562090,0.609801,-0.139281,-0.756254,-0.191901,9.625564575,1.143863678,-1.883557439,2.755541086,-0.140519693,-0.033144817,-0.4453125,-0.369384766,0.920410156
187,818570423,0.609839,-0.139055,-0.756319,-0.191687,9.676124573,1.149361134,-1.896231174,3.140036106,-0.574911475,-0.199099436,-0.444824219,-0.365478516,0.922363281
188,818578756,0.609846,-0.138899,-0.756375,-0.191558,9.741066933,1.138808966,-1.942059159,2.993727684,-0.884382665,-0.345945865,-0.445800781,-0.369873047,0.922363281
189,818587089,0.609899,-0.138604,-0.756451,-0.191303,9.763539314,1.109095812,-1.968217134,2.528624535,-0.655186534,-0.22258769,-0.447265625,-0.366943359,0.919921875
190,818595422,0.609937,-0.138483,-0.756472,-0.191186,9.74795723,1.091228724,-1.992712379,2.552855492,-0.335367203,0.062588386,-0.444824219,-0.368896484,0.919433594
191,818603755,0.609998,-0.138346,-0.756477,-0.191072,9.734127998,1.090556741,-2.019812346,2.653750181,0.095707595,-0.029763743,-0.444824219,-0.368896484,0.922363281
192,818612088,0.610042,-0.13835,-0.75644,-0.191073,9.694477081,1.10278523,-1.994710088,2.858356714,0.573874176,-0.100971319,-0.447753906,-0.367431641,0.921386719
193,818620421,0.61014,-0.138195,-0.756419,-0.190953,9.663887978,1.111718416,-1.971964717,2.866962671,0.736396432,-0.025639849,-0.446777344,-0.367431641,0.918945313
194,818628754,0.610331,-0.137677,-0.756471,-0.190514,9.665121078,1.147081375,-1.937488556,2.856307507,0.776585221,0.075036906,-0.445800781,-0.366943359,0.921386719
195,818637087,0.610427,-0.137575,-0.756436,-0.190418,9.642536163,1.154189229,-1.887826324,3.130251884,1.014643908,0.014997136,-0.447753906,-0.368896484,0.918945313
196,818645420,0.610556,-0.137394,-0.7564,-0.190279,9.625987053,1.153479338,-1.8750844,3.300919056,1.22391212,-0.032530077,-0.445800781,-0.368408203,0.918212891
197,818653753,0.610658,-0.137285,-0.756362,-0.190179,9.630634308,1.128312469,-1.817539811,3.27940321,1.12109673,-0.001203869,-0.446289063,-0.365478516,0.918212891
198,818662086,0.610787,-0.137097,-0.756328,-0.190038,9.619012833,1.129575729,-1.824981928,3.395153999,1.215971708,-0.087293305,-0.446289063,-0.366455078,0.918212891
199,818670419,0.610895,-0.13695,-0.756301,-0.189904,9.625279427,1.121382236,-1.815865397,3.351635218,1.072301507,-0.018186105,-0.447265625,-0.365966797,0.916748047
200,818678752,0.61101,-0.136775,-0.756274,-0.189768,9.61274147,1.096161008,-1.783488512,3.221489429,0.976427436,-0.045362808,-0.446777344,-0.365478516,0.917236328
201,818687085,0.611104,-0.136611,-0.756261,-0.189638,9.622980118,1.076821327,-1.785093188,3.061707973,0.634041905,-0.067134902,-0.447265625,-0.366455078,0.918945313
202,818695418,0.611199,-0.136342,-0.756287,-0.189417,9.618227005,1.084799886,-1.799355268,2.884790659,0.340221077,-0.238699079,-0.446777344,-0.365966797,0.916748047
203,818703751,0.611265,-0.136171,-0.756292,-0.189306,9.63372612,1.130247355,-1.835872173,2.912377119,0.236970112,-0.403014392,-0.448730469,-0.365966797,0.919921875
204,818712084,0.611142,-0.136765,-0.756161,-0.1898,9.647128105,1.153172255,-1.861756921,2.987170696,0.348161519,-0.333907157,-0.447265625,-0.366943359,0.917724609
205,818720417,0.611345,-0.136128,-0.756247,-0.18926,9.636517525,1.172059774,-1.883449435,3.171618223,0.556661308,-0.049691614,-0.450195313,-0.366455078,0.919921875
206,818728750,0.611458,-0.135951,-0.756227,-0.189101,9.664838791,1.188670874,-1.871785879,3.492744446,0.860343814,0.111870185,-0.447265625,-0.365478516,0.914306641
207,818737083,0.61152,-0.136004,-0.756168,-0.189097,9.643229485,1.191957831,-1.852056861,3.433319569,0.958548784,0.324545205,-0.447753906,-0.363525391,0.915283203
208,818745416,0.611644,-0.135862,-0.756136,-0.188927,9.645598412,1.196613193,-1.855022788,3.312445879,0.959368408,0.618237972,-0.448730469,-0.364990234,0.915771484
209,818753749,0.611787,-0.135616,-0.756131,-0.188664,9.647575378,1.174069762,-1.853045464,3.153535128,0.958164573,0.552742422,-0.448730469,-0.363037109,0.917236328
210,818762082,0.611903,-0.135499,-0.756087,-0.188544,9.644656181,1.164832592,-1.819718719,2.52972579,1.011211634,0.463860989,-0.448242188,-0.364990234,0.918701172
211,818770415,0.611998,-0.135407,-0.756046,-0.188467,9.626487732,1.157042265,-1.811427355,1.837501049,0.793131948,0.285765171,-0.447753906,-0.363525391,0.916748047
212,818778748,0.612128,-0.135087,-0.756062,-0.188212,9.631811142,1.164218187,-1.812044024,1.171582222,0.551948369,0.087972075,-0.448730469,-0.363037109,0.916259766
213,818787081,0.61209,-0.135329,-0.755991,-0.188443,9.630309105,1.199774981,-1.774756193,0.43399477,0.115737915,-0.133629471,-0.447265625,-0.363525391,0.915771484
214,818795414,0.612124,-0.13531,-0.755954,-0.188499,9.667102814,1.203043818,-1.768182755,-0.26664418,0.17498365,-0.235932723,-0.448730469,-0.364013672,0.915283203
215,818803747,0.612128,-0.135363,-0.75591,-0.18862,9.676802635,1.176156282,-1.812601924,-0.545480728,0.153237149,-0.42266047,-0.451660156,-0.366455078,0.916259766
216,818812080,0.612144,-0.135336,-0.755885,-0.188691,9.67924881,1.173037648,-1.920502543,-0.358343124,-0.064573489,-0.512412786,-0.447753906,-0.364501953,0.915283203
217,818820413,0.6122,-0.135218,-0.75587,-0.188656,9.705428123,1.189216971,-1.927254319,-0.393383443,0.226570711,-0.252710074,-0.446777344,-0.364501953,0.915283203
218,818828746,0.612257,-0.135245,-0.755798,-0.188739,9.679584503,1.186649442,-1.876927495,-0.984713614,0.635425091,0.140558124,-0.448730469,-0.366943359,0.914794922
219,818837079,0.612296,-0.135266,-0.755744,-0.188814,9.701122284,1.199982405,-1.82149291,-0.8353827,0.302081466,0.076266378,-0.448730469,-0.365478516,0.917236328
220,818845412,0.612102,-0.136077,-0.755584,-0.189496,9.718173981,1.173817277,-1.694944859,-0.455958992,-0.335828245,0.160588428,-0.448730469,-0.364990234,0.915283203
221,818853745,0.612091,-0.136106,-0.755587,-0.189502,9.791642189,1.203358412,-1.824775934,-0.129300654,-0.84544903,0.497594982,-0.450683594,-0.363525391,0.916748047
222,818862078,0.612249,-0.135819,-0.755581,-0.189221,9.844902039,1.171800137,-2.026129246,0.504792571,0.797050953,0.897561252,-0.44921875,-0.364990234,0.915771484
223,818870411,0.612344,-0.136169,-0.755375,-0.189483,9.768768311,1.16217196,-2.098893404,0.298623532,2.482800484,1.179625154,-0.44921875,-0.364501953,0.914306641
224,818878744,0.612578,-0.136167,-0.755185,-0.189481,9.720094681,1.164543629,-1.911852717,0.171218351,3.392234087,1.239716172,-0.44921875,-0.365966797,0.912353516
225,818887077,0.612749,-0.136485,-0.754931,-0.189716,9.650740623,1.192070723,-1.913312078,0.038280465,3.63313508,1.490146279,-0.449707031,-0.365478516,0.914794922
226,818895410,0.612983,-0.136491,-0.754748,-0.189684,9.641138077,1.182471871,-1.916070342,0.446930021,3.256530046,1.568603277,-0.449707031,-0.364990234,0.911865234
227,818903743,0.613198,-0.136605,-0.754541,-0.189729,9.701098442,1.185798407,-1.794944286,-0.49804309,3.394077778,1.759121299,-0.449707031,-0.363525391,0.912353516
228,818912076,0.613451,-0.136689,-0.754309,-0.189775,9.730012894,1.209478855,-1.783334136,-1.114398599,3.805827141,1.86093843,-0.450683594,-0.365478516,0.913330078
229,818920409,0.613697,-0.136773,-0.754085,-0.189809,9.689725876,1.240246296,-1.827767134,-0.983586609,3.637874842,1.927970767,-0.452148438,-0.364013672,0.910888672
230,818928742,0.613837,-0.137136,-0.753848,-0.190034,9.648507118,1.198025942,-1.823647022,-1.166395426,2.947160959,2.07935071,-0.451171875,-0.364990234,0.911376953
231,818937075,0.614018,-0.137263,-0.753672,-0.190059,9.658827782,1.159154773,-1.825763226,-1.258658051,2.44168973,2.184138775,-0.450683594,-0.362548828,0.908935547
232,818945408,0.614171,-0.137349,-0.753543,-0.190009,9.636166573,1.103857756,-1.818353415,-1.300946951,1.728333235,2.332009792,-0.44921875,-0.364013672,0.910888672
233,818953741,0.614493,-0.13663,-0.753594,-0.189283,9.624117851,1.072651744,-1.793642521,-1.486342788,1.082188606,2.289361715,-0.452636719,-0.363037109,0.911376953
234,818962074,0.614587,-0.136806,-0.75347,-0.189347,9.544830322,1.079502583,-1.776924014,-2.108896971,1.031113863,2.050406694,-0.451171875,-0.364013672,0.909423828
235,818970407,0.614731,-0.136676,-0.753424,-0.189155,9.517737389,1.030665874,-1.770552158,-2.202721834,0.739060402,1.832813859,-0.450683594,-0.363525391,0.908447266
236,818978740,0.614807,-0.136815,-0.753318,-0.189227,9.49094677,0.992224932,-1.785404921,-1.868250966,0.825994968,1.504951477,-0.450683594,-0.362060547,0.910888672
237,818987073,0.614937,-0.136667,-0.753278,-0.189074,9.479129791,0.975320995,-1.818352461,-1.749016643,0.729070723,1.158928871,-0.452636719,-0.361572266,0.909423828
238,818995406,0.61498,-0.136759,-0.753205,-0.18916,9.537823677,0.999726772,-1.795086861,-1.601734877,0.343243539,0.758245349,-0.452148438,-0.363525391,0.910888672
239,819003739,0.615002,-0.136845,-0.75315,-0.189245,9.590489388,1.02033174,-1.795785427,-1.507423282,-0.015624683,0.610348761,-0.450195313,-0.364013672,0.910888672
240,819012072,0.614962,-0.137048,-0.753101,-0.189423,9.607598305,1.054407716,-1.79394722,-1.299999237,-0.400222421,0.351849914,-0.453125,-0.363525391,0.909912109
241,819020405,0.614932,-0.137113,-0.753102,-0.18947,9.623334885,1.074757218,-1.797073126,-0.897676408,-1.047135472,0.487528503,-0.451171875,-0.362548828,0.908935547
242,819028738,0.614944,-0.136943,-0.753166,-0.189296,9.638392448,1.111408472,-1.809719443,-0.507904649,-1.236885667,0.442140102,-0.453125,-0.363525391,0.909423828
243,819037071,0.61488,-0.137059,-0.753185,-0.189344,9.636159897,1.15971899,-1.773776293,-0.144387424,-1.370694399,0.544135928,-0.453125,-0.363037109,0.908935547
244,819045404,0.614827,-0.137118,-0.753213,-0.189362,9.628652573,1.161761284,-1.784059286,-0.521685183,-1.537187219,0.533096254,-0.451660156,-0.363525391,0.909423828
245,819053737,0.614732,-0.137327,-0.75322,-0.189493,9.671045303,1.147720098,-1.763117433,-0.532135725,-1.515261292,0.515576065,-0.451660156,-0.363525391,0.910888672
246,819062070,0.614695,-0.137384,-0.753233,-0.189521,9.67282486,1.124856114,-1.770757794,-0.609618783,-1.243161201,0.518598676,-0.44921875,-0.363037109,0.911865234
247,819070403,0.614371,-0.138577,-0.753039,-0.190471,9.675157547,1.098097324,-1.801486373,-0.795168221,-1.188346624,0.605328381,-0.452636719,-0.363525391,0.909912109
248,819078736,0.614341,-0.138639,-0.753048,-0.190488,9.690851212,1.112116575,-1.833631396,-0.52078861,-1.162681341,0.69300586,-0.451171875,-0.363525391,0.908935547
249,819087069,0.614321,-0.138701,-0.75305,-0.190496,9.697066307,1.102796674,-1.821457148,-0.453064591,-1.017627835,0.792440355,-0.453125,-0.362548828,0.909912109
250,819095402,0.614288,-0.138822,-0.753052,-0.190511,9.685821533,1.07718277,-1.818918228,-0.501244962,-1.063298106,1.097685218,-0.451171875,-0.363525391,0.911865234
251,819103735,0.614268,-0.138922,-0.753052,-0.190503,9.692537308,1.090923309,-1.831414819,-0.598297238,-1.12720561,1.330723405,-0.449707031,-0.363525391,0.910400391
252,819112068,0.614173,-0.1393,-0.753008,-0.190707,9.694046974,1.096775293,-1.823802471,-0.636923552,-1.148952127,1.378827095,-0.451171875,-0.364501953,0.911865234
253,819120401,0.614168,-0.139358,-0.753018,-0.190638,9.685972214,1.089686513,-1.834913135,-0.700498044,-1.036736012,1.501134992,-0.450195313,-0.361572266,0.910400391
254,819128734,0.61414,-0.13947,-0.753018,-0.190644,9.685459137,1.094084382,-1.800166845,-0.865248919,-1.215728521,1.317788482,-0.451171875,-0.363037109,0.910400391
255,819137067,0.614094,-0.139608,-0.75302,-0.190686,9.688717842,1.082193613,-1.776887536,-1.11964941,-1.211194634,1.047173858,-0.450683594,-0.364013672,0.911865234
256,819145400,0.614045,-0.139721,-0.753029,-0.190726,9.677893639,1.097213864,-1.800957084,-1.238345742,-1.440339565,0.961852729,-0.452636719,-0.361572266,0.909423828
257,819153733,0.613806,-0.140498,-0.752932,-0.191306,9.652522087,1.110603094,-1.794783831,-1.093010664,-1.70859766,0.835164905,-0.451171875,-0.364013672,0.909423828
258,819162066,0.61375,-0.140586,-0.752955,-0.191329,9.670659065,1.097064972,-1.861339927,-0.823369622,-1.599250436,0.805759907,-0.451660156,-0.364990234,0.907958984
259,819170399,0.613696,-0.140676,-0.75298,-0.191339,9.6838274,1.098444462,-1.868998528,-0.697065771,-1.628681183,0.932627141,-0.450683594,-0.364013672,0.908447266
260,819178732,0.613631,-0.140837,-0.752992,-0.191382,9.646496773,1.071482182,-1.876246333,-0.604854524,-1.459294319,1.074862957,-0.450683594,-0.362548828,0.909423828
261,819187065,0.613598,-0.140924,-0.753008,-0.191358,9.64070797,1.044387698,-1.870832205,-0.303861707,-1.397768855,1.271324277,-0.450683594,-0.362060547,0.909912109
262,819195398,0.61345,-0.141452,-0.75295,-0.191673,9.675835609,1.024417877,-1.853671074,0.087280497,-1.393158197,1.313305855,-0.451171875,-0.363525391,0.910888672
263,819203731,0.613403,-0.141525,-0.752988,-0.191621,9.685567856,1.016788006,-1.865642667,0.213072032,-1.552069068,1.135824919,-0.450683594,-0.363525391,0.910400391
264,819212064,0.61335,-0.141575,-0.75303,-0.191587,9.709846497,1.00983274,-1.853695989,0.14086546,-1.749247193,0.867003441,-0.451171875,-0.363037109,0.911376953
265,819220397,0.613183,-0.14201,-0.753015,-0.191861,9.676056862,1.01643908,-1.831206083,0.035847124,-1.940431952,0.807834625,-0.452636719,-0.361572266,0.911376953
266,819228730,0.613097,-0.14205,-0.753085,-0.19183,9.649595261,1.048961282,-1.798605323,0.211099714,-2.288554907,0.585631073,-0.450195313,-0.361572266,0.910400391
267,819237063,0.612754,-0.142992,-0.753,-0.192558,9.616008759,1.074726224,-1.805810809,0.326978505,-2.508709192,0.212098673,-0.451171875,-0.361083984,0.910888672
268,819245396,0.612643,-0.143024,-0.753092,-0.19253,9.617348671,1.067234874,-1.782974243,0.277338117,-2.696077347,0.365553558,-0.448730469,-0.363525391,0.913818359
269,819253729,0.612532,-0.143034,-0.753192,-0.192485,9.612127304,1.05657506,-1.829797506,0.630532861,-2.756066084,0.26050958,-0.450683594,-0.362060547,0.912841797
270,819262062,0.612344,-0.143336,-0.753243,-0.192656,9.622268677,1.095027089,-1.940889359,0.846512079,-2.723689795,0.357382625,-0.448730469,-0.364501953,0.913818359
271,819270395,0.612269,-0.143343,-0.753316,-0.192607,9.663220406,1.08962357,-1.969122887,0.716468632,-2.143219948,0.413144797,-0.452148438,-0.363525391,0.913330078
272,819278728,0.612197,-0.143486,-0.753335,-0.192653,9.687296867,1.080458522,-1.930238008,0.512425542,-1.434422731,0.666085362,-0.44921875,-0.362548828,0.913818359
273,819287061,0.61218,-0.143508,-0.753363,-0.192582,9.688174248,1.074827075,-1.84097755,1.069253445,-1.042678714,0.828658819,-0.451171875,-0.362060547,0.912353516
274,819295394,0.612143,-0.143499,-0.753423,-0.192469,9.736000061,1.045895338,-1.75528872,1.545908809,-1.726476192,0.929169238,-0.446777344,-0.363037109,0.913330078
275,819303727,0.612036,-0.143671,-0.75348,-0.192461,9.816287994,1.077108502,-1.81292212,1.952150702,-2.19137454,1.063336611,-0.447753906,-0.363525391,0.914306641
276,819312060,0.61204,-0.143654,-0.753513,-0.192331,9.903811455,1.114944577,-2.010660648,1.807686448,-1.085403204,1.137566686,-0.44921875,-0.360107422,0.912353516
277,819320393,0.612131,-0.1436,-0.753483,-0.192197,9.844941139,1.107844114,-2.13081193,1.473625302,0.45399949,1.19122839,-0.450683594,-0.360107422,0.912841797
278,819328726,0.612238,-0.143592,-0.753415,-0.192131,9.772015572,1.137985349,-1.962453246,0.989900529,0.937288821,1.174809575,-0.448242188,-0.359130859,0.915283203
279,819337059,0.612324,-0.143605,-0.753363,-0.192049,9.721208572,1.152462602,-1.930961609,1.004270077,0.490551084,1.430388689,-0.450195313,-0.360107422,0.914306641
280,819345392,0.612742,-0.142192,-0.753621,-0.190751,9.719275475,1.136532664,-1.982288837,1.901536584,-0.01741768,1.404620528,-0.448730469,-0.361572266,0.912353516
281,819353725,0.612798,-0.142211,-0.753595,-0.19066,9.751796722,1.085479975,-1.874212146,1.580078125,0.129390299,1.248988509,-0.449707031,-0.360107422,0.912841797
282,819362058,0.61287,-0.142235,-0.753548,-0.190598,9.74257946,1.087410927,-1.885839939,0.671950996,0.336045951,1.326138496,-0.450195313,-0.361083984,0.912353516
283,819370391,0.612961,-0.14219,-0.75352,-0.190448,9.661988258,1.117393017,-1.929104209,0.762292385,0.332613647,1.511944294,-0.451660156,-0.361083984,0.911865234
284,819378724,0.613025,-0.142214,-0.753486,-0.19036,9.627573967,1.106107235,-1.91324389,0.952478111,0.073781796,1.504413605,-0.451171875,-0.359130859,0.912841797
285,819387057,0.613155,-0.14189,-0.753543,-0.189954,9.616916656,1.079071522,-1.877146006,1.446218014,-0.221691206,1.490479469,-0.450195313,-0.359619141,0.912841797
286,819395390,0.613191,-0.141897,-0.753548,-0.189815,9.590973854,1.053002834,-1.893602252,1.67464602,-0.594813824,1.615016103,-0.451171875,-0.357177734,0.913818359
287,819403723,0.6132,-0.141912,-0.753569,-0.189691,9.544372559,1.038797975,-1.892686009,1.4355371,-1.005486846,1.460459709,-0.450683594,-0.359130859,0.911376953
288,819412056,0.613279,-0.141545,-0.753684,-0.189253,9.493528366,1.031363964,-1.905415177,1.209670663,-1.278509021,1.225833297,-0.450195313,-0.358642578,0.913330078
289,819420389,0.613253,-0.14158,-0.753716,-0.189181,9.461108208,1.032109976,-1.876115441,0.682068646,-1.419335961,1.122940898,-0.447753906,-0.358642578,0.912841797
290,819428722,0.613263,-0.141379,-0.753817,-0.188901,9.456234932,1.049778342,-1.85979104,0.67802155,-1.715001106,1.011979938,-0.451660156,-0.360107422,0.912841797
291,819437055,0.613133,-0.141708,-0.753817,-0.189072,9.477053642,1.062941432,-1.83602643,0.911162317,-1.742433906,0.842977285,-0.450195313,-0.358154297,0.914306641
292,819445388,0.613095,-0.141694,-0.753875,-0.188976,9.514437675,1.049893141,-1.853861213,1.401956677,-1.671251893,0.727687538,-0.449707031,-0.358154297,0.914306641
293,819453721,0.613065,-0.141658,-0.753928,-0.188886,9.548398018,1.041304469,-1.816215277,1.510253668,-1.479119539,0.485837966,-0.451660156,-0.359130859,0.914306641
294,819462054,0.613021,-0.141647,-0.753986,-0.188811,9.63906002,1.029451013,-1.831413031,1.645035863,-1.478914618,0.36089173,-0.448730469,-0.358642578,0.914306641
295,819470387,0.612964,-0.141651,-0.754048,-0.188743,9.687327385,1.044381738,-1.840343595,1.544755936,-1.652502179,0.397340804,-0.451660156,-0.356201172,0.913330078
296,819478720,0.612922,-0.141618,-0.754104,-0.188678,9.725432396,1.04059577,-1.84704113,1.222836375,-1.579911709,0.263224691,-0.449707031,-0.358642578,0.915283203
297,819487053,0.612892,-0.141596,-0.754146,-0.188625,9.767565727,1.010293007,-1.842574716,0.977913082,-1.349972725,0.328540981,-0.449707031,-0.358154297,0.915771484
298,819495386,0.612882,-0.141515,-0.754194,-0.188526,9.764045715,1.004201889,-1.868930578,0.955423713,-1.084224939,0.229798093,-0.450683594,-0.358642578,0.913818359
299,819503719,0.612868,-0.14148,-0.754222,-0.188487,9.770010948,1.033120871,-1.840648174,0.939261138,-1.005051374,0.161894768,-0.452148438,-0.358154297,0.913818359
300,819512052,0.612807,-0.141695,-0.754196,-0.188627,9.739525795,1.068871021,-1.839275122,1.121583223,-0.738996267,0.364349693,-0.44921875,-0.357666016,0.914306641
301,819520385,0.612811,-0.141629,-0.754228,-0.188535,9.725834846,1.064428806,-1.857607603,0.995740533,-0.81504488,0.352003634,-0.449707031,-0.356689453,0.912841797
302,819528718,0.612815,-0.141605,-0.754248,-0.188462,9.704984665,1.094649673,-1.879867315,1.217687845,-0.842093647,0.623258412,-0.450195313,-0.358154297,0.914306641
303,819537051,0.612752,-0.141909,-0.754198,-0.188641,9.68748188,1.090668201,-1.880718946,1.423472643,-0.531341732,0.730581999,-0.448730469,-0.357666016,0.913330078
304,819545384,0.612802,-0.141878,-0.754183,-0.188558,9.668984413,1.105150104,-1.893851638,1.393273473,-0.066904388,0.804530323,-0.448730469,-0.358154297,0.915283203
305,819553717,0.612807,-0.142083,-0.754115,-0.18866,9.658276558,1.128661394,-1.875804424,0.929092288,0.209383577,0.953656316,-0.450195313,-0.356689453,0.912353516
306,819562050,0.612878,-0.142084,-0.754071,-0.188607,9.672675133,1.156385779,-1.886283398,0.77871114,0.361455262,1.004397988,-0.449707031,-0.356689453,0.913818359
307,819570383,0.612949,-0.142095,-0.75402,-0.18857,9.67611599,1.123933315,-1.881483793,0.503460526,0.434711993,0.985059261,-0.450195313,-0.357666016,0.912353516
308,819578716,0.613012,-0.14212,-0.753971,-0.18854,9.69734478,1.123704433,-1.843130231,0.365374237,0.471519619,0.922381401,-0.451660156,-0.356201172,0.912353516
309,819587049,0.613078,-0.142151,-0.753915,-0.188527,9.708676338,1.096960187,-1.86924541,0.062613994,0.40369314,0.987825751,-0.450195313,-0.355712891,0.913818359
310,819595382,0.61305,-0.142519,-0.753804,-0.188786,9.730634689,1.071882129,-1.867120862,-0.190826058,0.34352532,0.954091847,-0.451171875,-0.355224609,0.912841797
311,819603715,0.613218,-0.142116,-0.753833,-0.188425,9.751599312,1.060652137,-1.888379097,-0.49827373,0.466063827,0.847075641,-0.450195313,-0.356201172,0.912841797
312,819612048,0.613288,-0.142167,-0.753762,-0.188446,9.731178284,1.049672604,-1.849539161,-0.489872217,0.594365478,0.947099149,-0.451171875,-0.356689453,0.911376953
313,819620381,0.613345,-0.142309,-0.753666,-0.188537,9.695550919,1.065530539,-1.851205707,-0.327708542,0.896280468,0.921459258,-0.451660156,-0.357177734,0.912841797
314,819628714,0.61345,-0.142338,-0.753572,-0.188548,9.659777641,1.064607501,-1.872271061,-0.176200315,1.18364656,0.940516293,-0.450195313,-0.356201172,0.911865234
315,819637047,0.61357,-0.142358,-0.753474,-0.188534,9.655414581,1.054262042,-1.845456481,-0.040547334,1.504080772,1.018460512,-0.44921875,-0.356689453,0.913330078
316,819645380,0.613702,-0.142363,-0.753368,-0.188525,9.623641968,1.033450842,-1.840929389,0.245064229,1.59157908,0.958830476,-0.449707031,-0.356201172,0.913330078
317,819653713,0.613841,-0.142362,-0.75326,-0.188504,9.62131691,1.029579282,-1.854521036,0.42659229,1.687786102,1.018434882,-0.451660156,-0.355712891,0.910400391
318,819662046,0.614023,-0.142171,-0.753193,-0.18832,9.62550354,1.033677936,-1.85272181,0.611373305,1.762015939,0.890004873,-0.44921875,-0.356689453,0.908935547
319,819670379,0.614166,-0.142148,-0.753086,-0.188302,9.629486084,1.023443103,-1.843429089,0.593802035,1.771442294,0.776764512,-0.452636719,-0.354736328,0.910888672
320,819678712,0.614286,-0.142184,-0.752978,-0.188315,9.636372566,1.001100779,-1.819729686,0.754915535,1.740781784,0.774561584,-0.451660156,-0.355712891,0.910888672
321,819687045,0.614392,-0.142173,-0.752899,-0.188294,9.574329376,0.986478806,-1.760950804,0.915926576,1.329442859,0.581865728,-0.451660156,-0.356201172,0.910400391
322,819695378,0.614473,-0.142115,-0.752854,-0.18825,9.572127342,0.987457097,-1.765786529,1.193456769,0.645645201,0.347700417,-0.451171875,-0.354736328,0.910888672
323,819703711,0.614586,-0.141889,-0.752854,-0.188053,9.633885384,1.011447906,-1.773468375,1.389328957,0.592598081,0.280309379,-0.452636719,-0.355712891,0.906494141
324,819712044,0.614653,-0.141802,-0.752834,-0.187984,9.658589363,1.016428232,-1.802882552,1.721366405,0.314248294,0.16847764,-0.449707031,-0.353759766,0.910888672
325,819720377,0.614736,-0.141681,-0.752812,-0.18789,9.675715446,1.028829336,-1.893972397,1.54852128,0.6300717,0.079673067,-0.451660156,-0.354248047,0.908935547
326,819728710,0.614839,-0.141612,-0.752752,-0.187846,9.704195976,1.025687099,-1.829407573,1.290714145,1.031574845,0.323879182,-0.44921875,-0.354736328,0.909423828
327,819737043,0.614948,-0.141538,-0.752685,-0.18781,9.711698532,1.026204467,-1.775796175,1.245376945,1.175629258,0.228030697,-0.453125,-0.353759766,0.907958984
328,819745376,0.614999,-0.141552,-0.752636,-0.187832,9.708360672,1.029379964,-1.701925993,1.321809769,0.635630012,0.098601989,-0.453613281,-0.355224609,0.909423828
329,819753709,0.615046,-0.14147,-0.752626,-0.18778,9.724826813,1.049844027,-1.667456269,1.497753978,0.041482251,0.018429443,-0.452148438,-0.355712891,0.908447266
330,819762042,0.615053,-0.141583,-0.752576,-0.187873,9.76458168,1.080572844,-1.765071034,1.652028441,0.26552996,0.09803848,-0.451660156,-0.355712891,0.908447266
331,819770375,0.615077,-0.141937,-0.752414,-0.188177,9.764424324,1.063913941,-1.860734224,1.373781204,1.62428844,0.371649742,-0.451171875,-0.354736328,0.906982422
332,819778708,0.615292,-0.141849,-0.752264,-0.18814,9.73923111,1.050151944,-1.953101039,1.37475431,3.015166759,0.50935185,-0.451171875,-0.355224609,0.906005859
333,819787041,0.615386,-0.142279,-0.752011,-0.188516,9.696365356,1.052020073,-1.803442955,1.932196975,3.2566576,0.600461662,-0.453125,-0.355712891,0.907958984
334,819795374,0.615608,-0.142162,-0.751874,-0.188425,9.728122711,1.029472351,-1.713344693,2.236980677,2.94206357,0.670004308,-0.453613281,-0.353271484,0.907470703
335,819803707,0.615828,-0.141903,-0.751796,-0.188212,9.72105217,1.069400787,-1.769774199,2.196612835,2.430624485,0.474490911,-0.454101563,-0.354736328,0.906494141
336,819812040,0.616021,-0.1418,-0.751672,-0.188155,9.762609482,1.050420165,-1.680057883,1.724568129,2.566200733,0.429845303,-0.452636719,-0.352783203,0.907470703
337,819820373,0.616226,-0.141745,-0.751514,-0.188155,9.772418976,1.056523561,-1.646132112,0.672488928,2.958533764,0.541625857,-0.453613281,-0.353271484,0.906494141
338,819828706,0.616378,-0.141922,-0.751314,-0.188323,9.757687569,1.05833602,-1.663677812,1.537456036,3.143519878,0.59262377,-0.453613281,-0.353759766,0.906494141
339,819837039,0.616612,-0.141802,-0.751168,-0.188231,9.750001907,1.051152349,-1.656399727,2.265412331,3.162960768,0.707580388,-0.452148438,-0.352294922,0.903320313
340,819845372,0.616829,-0.141762,-0.751008,-0.188191,9.764415741,1.011936307,-1.59260869,2.313029289,3.25983429,0.763957381,-0.456542969,-0.353271484,0.904296875
341,819853705,0.616996,-0.141977,-0.750785,-0.18837,9.744579315,0.992364228,-1.586581826,1.887986779,3.501401663,0.858576298,-0.455566406,-0.353759766,0.90234375
342,819862038,0.617244,-0.141892,-0.750604,-0.188342,9.799247742,1.000587583,-1.576975703,1.240382075,3.628653288,0.627433419,-0.453125,-0.354248047,0.903320313
343,819870371,0.617525,-0.14173,-0.75042,-0.188272,9.834606171,0.965957105,-1.518776655,0.782143414,4.067450523,0.473287016,-0.456054688,-0.352783203,0.901855469
344,819878704,0.617808,-0.141644,-0.750194,-0.188312,9.860528946,0.938822269,-1.475791335,0.493317395,4.501381874,0.220577002,-0.454589844,-0.353759766,0.901855469
345,819887037,0.618101,-0.14161,-0.749931,-0.188423,9.887340546,0.860402048,-1.425030828,0.328566611,5.145297527,0.017097501,-0.455566406,-0.351806641,0.900878906
346,819895370,0.618443,-0.141503,-0.749642,-0.188532,9.890621185,0.808224857,-1.365871787,-0.069824405,5.831912518,-0.306474298,-0.456542969,-0.350830078,0.898925781
347,819903703,0.618806,-0.141386,-0.749329,-0.188673,9.906933784,0.724635303,-1.287353277,-0.35460344,6.361103058,-0.574860275,-0.456542969,-0.351318359,0.899902344
348,819912036,0.619172,-0.141263,-0.749011,-0.188825,9.894561768,0.695107818,-1.269807458,-0.44033429,6.555719852,-0.785588562,-0.45703125,-0.354492188,0.895507813
349,819920369,0.619296,-0.142041,-0.748531,-0.18974,9.877338409,0.696811676,-1.23848474,0.180106491,6.374934673,-0.95090276,-0.45703125,-0.353515625,0.897460938
350,819928702,0.619658,-0.141835,-0.748255,-0.189798,9.872225761,0.762868583,-1.164757729,1.388714194,6.084213734,-0.85031569,-0.459472656,-0.354003906,0.895507813
351,819937035,0.619706,-0.142819,-0.747766,-0.190826,9.854442596,0.824144185,-1.176810384,2.448323965,5.933371544,-0.780542612,-0.460449219,-0.354492188,0.895019531
352,819945368,0.620072,-0.142544,-0.747525,-0.190787,9.857569695,0.857195973,-1.19332099,3.093443871,5.83580637,-0.795885444,-0.456542969,-0.353027344,0.896484375
353,819953701,0.6201,-0.14366,-0.746999,-0.191918,9.815312386,0.9266361,-1.215681076,2.968933105,6.19276619,-0.695938766,-0.458496094,-0.354003906,0.89453125
354,819962034,0.620474,-0.143416,-0.746743,-0.191889,9.706778526,0.991319001,-1.164766788,2.699548721,5.980065823,-0.488898903,-0.4609375,-0.3515625,0.893066406
355,819970367,0.620822,-0.1432,-0.746512,-0.191826,9.551291466,1.049733996,-1.216121316,2.811610699,5.359509945,-0.030890768,-0.459472656,-0.353515625,0.892089844
356,819978700,0.621022,-0.143515,-0.746205,-0.192133,9.440480232,1.13214922,-1.292517543,3.411470175,4.934569359,0.508327305,-0.461914063,-0.353515625,0.891601563
357,819987033,0.621357,-0.143289,-0.746024,-0.191922,9.410118103,1.185559154,-1.243873119,4.52453661,4.524664879,0.994306207,-0.461425781,-0.352050781,0.891601563
358,819995366,0.621858,-0.14238,-0.746011,-0.191023,9.389065742,1.25806427,-1.19617641,5.799690723,4.049111843,1.708584905,-0.461425781,-0.349609375,0.888916016
359,820003699,0.622159,-0.142138,-0.745911,-0.190615,9.342864037,1.327471018,-1.246684074,7.258087635,3.273460388,2.136111736,-0.462402344,-0.350097656,0.890869141
360,820012032,0.622452,-0.141885,-0.745836,-0.190138,9.300797462,1.378032088,-1.271425605,7.675036907,2.741709471,2.677161694,-0.462890625,-0.348632813,0.890380859
361,820020365,0.622732,-0.141736,-0.745752,-0.189663,9.213498116,1.469471335,-1.354202151,7.739302635,2.572271347,3.500172853,-0.462890625,-0.349121094,0.890869141
362,820028698,0.623003,-0.141594,-0.745696,-0.1891,9.139084816,1.594095707,-1.424452662,7.618429661,1.908580899,4.4501791,-0.461914063,-0.349121094,0.887939453
363,820037031,0.623321,-0.14135,-0.745665,-0.188353,9.140130043,1.714815617,-1.416754842,7.481547832,1.801308513,5.457638741,-0.463378906,-0.347167969,0.886962891
364,820045364,0.623593,-0.141346,-0.745594,-0.187739,9.219795227,1.758091927,-1.3322469,6.919366837,1.587685943,6.335361958,-0.463378906,-0.346679688,0.887939453
365,820053697,0.623839,-0.141394,-0.745533,-0.187125,9.333260536,1.798893452,-1.248635054,6.46199894,1.094125152,6.780255795,-0.465332031,-0.346191406,0.888427734
366,820062030,0.624039,-0.141504,-0.745491,-0.186542,9.363451004,1.809733868,-1.218760848,5.885166168,0.448851049,6.908479691,-0.463867188,-0.343261719,0.887451172
367,820070363,0.624186,-0.141641,-0.745486,-0.185965,9.409255981,1.769358754,-1.287186027,5.255669594,-0.557929337,7.015240192,-0.462890625,-0.342773438,0.884033203
368,820078696,0.624274,-0.141866,-0.745515,-0.185378,9.394068718,1.744302988,-1.410725713,4.521207333,-1.629193664,7.727214336,-0.464355469,-0.33984375,0.886474609
369,820087029,0.62435,-0.142135,-0.745556,-0.184752,9.308982849,1.759438157,-1.548028827,4.332942486,-2.045962811,8.490824699,-0.46484375,-0.338378906,0.886962891
370,820095362,0.624455,-0.142443,-0.745566,-0.184118,9.367988586,1.828813553,-1.540103674,4.323875427,-1.665489078,9.125981331,-0.465332031,-0.338867188,0.886962891
371,820103695,0.624606,-0.142781,-0.745535,-0.183469,9.51167202,1.895280838,-1.468646765,3.992964983,-0.874495745,9.733500481,-0.464355469,-0.336425781,0.886962891
372,820112028,0.624796,-0.143132,-0.745454,-0.182878,9.61095047,1.947012305,-1.361544609,3.455757618,-0.032555696,9.584733009,-0.462890625,-0.335449219,0.885009766
373,820120361,0.624976,-0.14344,-0.745386,-0.182296,9.739821434,1.986855626,-1.292828918,2.859458447,-0.091237925,9.094630241,-0.463378906,-0.333740234,0.888427734
374,820128694,0.62512,-0.143797,-0.745315,-0.181812,9.882631302,2.061527252,-1.312540293,2.238901854,-0.399684519,8.590744972,-0.462402344,-0.331787109,0.887451172
375,820137027,0.625258,-0.144187,-0.745228,-0.181382,9.970118523,2.131808281,-1.261135578,1.358668685,-0.291105777,8.485368729,-0.463378906,-0.329345703,0.887451172
376,820145360,0.625386,-0.144757,-0.745081,-0.181091,10.02766037,2.167732716,-1.182497621,0.037486434,0.162048474,8.946578979,-0.462890625,-0.329345703,0.886474609
377,820153693,0.625548,-0.145319,-0.744917,-0.180757,10.00756836,2.196347713,-1.170044184,-1.254072905,0.376849443,9.619080544,-0.461914063,-0.328369141,0.887451172
378,820162026,0.625711,-0.145971,-0.744726,-0.180453,10.01989079,2.24826622,-1.155912638,-2.208715916,0.48696506,10.32144928,-0.463378906,-0.326904297,0.885009766
379,820170359,0.625891,-0.146666,-0.744512,-0.180147,10.00716782,2.209222794,-1.160024405,-2.954038858,0.735243857,10.92809677,-0.459472656,-0.324951172,0.886962891
380,820178692,0.626086,-0.147431,-0.744261,-0.179883,10.03227901,2.200140238,-1.205750704,-3.868620872,1.091640472,11.37050533,-0.462402344,-0.326416016,0.885498047
381,820187025,0.626295,-0.148299,-0.743953,-0.179717,10.14019203,2.20335722,-1.181759596,-5.902441978,1.695803285,11.72108841,-0.462890625,-0.323486328,0.885009766
382,820195358,0.626525,-0.149286,-0.743572,-0.179673,10.17585945,2.24713254,-1.181825161,-8.276781082,2.474758387,12.0909338,-0.462402344,-0.322998047,0.885009766
383,820203691,0.626773,-0.15033,-0.743135,-0.179745,10.18275547,2.239072561,-1.135609031,-10.40762806,3.232350349,11.89746761,-0.463378906,-0.321533203,0.884033203
384,820212024,0.626996,-0.151518,-0.742642,-0.180009,10.19935417,2.277953386,-0.961102366,-13.4551878,3.511264801,11.70910358,-0.464355469,-0.320068359,0.883544922
385,820220357,0.627222,-0.152818,-0.742081,-0.180438,10.29020214,2.310945749,-1.06175375,-16.2584362,4.181255817,11.58810043,-0.465820313,-0.321044922,0.883056641
386,820228690,0.627573,-0.154162,-0.74138,-0.180951,10.39685917,2.304661989,-1.321237683,-17.5866642,6.754872799,11.90958595,-0.462890625,-0.319580078,0.883544922
387,820237023,0.628031,-0.155495,-0.740588,-0.181464,10.33488178,2.248693228,-1.284311056,-17.48935509,8.638109207,12.24636364,-0.464355469,-0.319091797,0.883056641
388,820245356,0.628542,-0.15681,-0.739758,-0.181951,10.2827282,2.175944328,-1.027037263,-16.55645943,9.538758278,12.45578575,-0.46484375,-0.319580078,0.882568359
389,820253689,0.629075,-0.158179,-0.738879,-0.182493,10.3042593,2.196181059,-0.958982229,-18.24530983,10.14315224,12.75890446,-0.46484375,-0.319580078,0.879150391
390,820262022,0.629617,-0.159699,-0.737909,-0.183224,10.35743141,2.203497648,-0.975271225,-21.58994484,11.03020191,12.8577528,-0.465820313,-0.317626953,0.878173828
391,820270355,0.630157,-0.16138,-0.736851,-0.184149,10.40374279,2.20238328,-0.84252286,-25.14815521,11.82211971,13.02335262,-0.467285156,-0.318115234,0.873535156
392,820278688,0.630685,-0.163181,-0.735738,-0.185203,10.32549953,2.184130669,-0.846874952,-27.69647026,12.13223267,13.18741226,-0.467773438,-0.318115234,0.875976563
393,820287021,0.631233,-0.165046,-0.734553,-0.186384,10.21401405,2.105754852,-0.755738914,-29.60365868,13.11643505,12.97040844,-0.466796875,-0.315673828,0.873535156
394,820295354,0.631814,-0.16696,-0.733297,-0.187652,10.25006676,1.902878404,-0.725149393,-31.07407188,14.10962963,12.93708515,-0.470703125,-0.319335938,0.872070313
395,820303687,0.632435,-0.168906,-0.73197,-0.188994,10.20917511,1.621974945,-0.656583428,-32.20020294,15.21765327,12.89128876,-0.468261719,-0.319824219,0.870605469
396,820312020,0.633101,-0.170877,-0.730577,-0.190378,10.16126251,1.450525165,-0.615647733,-32.88680267,16.27895546,13.06144428,-0.470214844,-0.319335938,0.867675781
397,820320353,0.633828,-0.172875,-0.729113,-0.191763,10.10426712,1.407451391,-0.643339336,-33.19345474,17.4369545,13.63605118,-0.474121094,-0.3203125,0.865722656
398,820328686,0.634661,-0.174855,-0.727552,-0.193137,10.02835655,1.378763795,-0.783550858,-32.91659546,19.38658333,14.09098721,-0.474121094,-0.320800781,0.8671875
399,820337019,0.635643,-0.176809,-0.72587,-0.194453,10.02394199,1.264671803,-0.840148747,-32.04748154,21.86932755,15.05790138,-0.477539063,-0.320800781,0.861572266
400,820345352,0.63674,-0.178827,-0.724059,-0.195762,10.01421738,1.168346405,-0.747344613,-32.63105392,23.92861557,16.30895615,-0.477050781,-0.322753906,0.856689453
401,820353685,0.637894,-0.180967,-0.722131,-0.197158,9.991750717,1.118854046,-0.701127112,-34.72131348,25.42913246,17.29557037,-0.477050781,-0.322265625,0.853271484
402,820362018,0.639145,-0.183178,-0.720083,-0.198551,10.113451,1.038644433,-0.824724019,-35.41859436,27.23245811,18.50065041,-0.479003906,-0.318359375,0.852783203
403,820370351,0.640524,-0.185431,-0.7179,-0.199915,10.06941795,0.977357626,-0.931993365,-35.52268982,29.49678612,19.93938255,-0.48046875,-0.320800781,0.846679688
404,820378684,0.642016,-0.187754,-0.715579,-0.201277,10.04725647,0.938958347,-1.003022552,-36.24030685,31.63548279,21.22560501,-0.482910156,-0.319824219,0.841796875
405,820387017,0.643586,-0.190175,-0.713118,-0.202722,10.18138409,0.878955185,-0.933273256,-38.11213684,33.57009506,22.03369141,-0.484375,-0.319824219,0.837402344
406,820395350,0.645211,-0.192681,-0.710531,-0.204265,10.24232101,0.757583439,-0.990361035,-39.98888397,35.25813675,22.5727272,-0.485351563,-0.319824219,0.835449219
407,820403683,0.646859,-0.195263,-0.707855,-0.20589,10.29284668,0.618007302,-1.009609342,-41.69073486,36.27039337,22.79854584,-0.488037109,-0.319824219,0.829345703
408,820412016,0.648524,-0.197958,-0.705079,-0.207594,10.4355793,0.454865694,-0.984323144,-43.68279648,37.2250824,23.57856369,-0.4921875,-0.317382813,0.824462891
409,820420349,0.650245,-0.200781,-0.702167,-0.209359,10.45327473,0.303670257,-0.896983325,-45.64788437,38.76873398,24.78525925,-0.493408203,-0.31640625,0.8203125
410,820428682,0.65202,-0.203706,-0.699135,-0.211154,10.34714222,0.124325387,-0.885115862,-47.07594681,40.14858627,25.95079231,-0.493408203,-0.31640625,0.814941406
411,820437015,0.653771,-0.206806,-0.696012,-0.213033,10.21294403,-0.158666357,-0.781457961,-49.76652527,40.47447205,27.09284401,-0.495361328,-0.314941406,0.810058594
412,820445348,0.655504,-0.210072,-0.692779,-0.215043,10.22743416,-0.465504467,-0.598260522,-52.89809418,41.1646843,27.7372818,-0.500244141,-0.315429688,0.802490234
413,820453681,0.65723,-0.213402,-0.689472,-0.217115,10.08283329,-0.80482924,-0.457268447,-54.28240585,41.76281357,28.0322876,-0.501220703,-0.311523438,0.798095703
414,820462014,0.658895,-0.216744,-0.686182,-0.219173,9.91330719,-1.233025312,-0.433948606,-54.41344452,40.95911026,27.98574829,-0.502197266,-0.314453125,0.791503906
415,820470347,0.660482,-0.22002,-0.682977,-0.221132,9.696854591,-1.512652993,-0.48307991,-52.85395432,39.34713745,27.76783752,-0.504638672,-0.311035156,0.788574219
416,820478680,0.661979,-0.223153,-0.679919,-0.222932,9.458806992,-1.627727032,-0.605348706,-49.8541832,37.13772583,27.26358032,-0.507568359,-0.307861328,0.782714844
417,820487013,0.663417,-0.226068,-0.677045,-0.224464,9.290964127,-1.672964215,-0.750931025,-44.97098923,34.74156189,26.94430733,-0.508056641,-0.309326172,0.777587891
418,820495346,0.664813,-0.228796,-0.674347,-0.225687,9.199368477,-1.744440317,-0.78801316,-40.01091003,32.36896896,27.20832634,-0.510986328,-0.305419922,0.772705078
419,820503679,0.666168,-0.231382,-0.67181,-0.22662,9.157372475,-1.886170745,-0.818321466,-35.65403366,30.04354095,27.95999527,-0.510498047,-0.306884766,0.770263672
420,820512012,0.667497,-0.233878,-0.669391,-0.227303,9.201776505,-2.024986267,-0.817924082,-32.23448563,28.19812775,28.91324997,-0.512939453,-0.301513672,0.764404297
421,820520345,0.668828,-0.236296,-0.667042,-0.227792,9.318025589,-2.05356288,-0.692946792,-29.50806618,27.20589447,29.79680634,-0.513916016,-0.301513672,0.760253906
422,820528678,0.670167,-0.238599,-0.664781,-0.228069,9.292689323,-1.983900428,-0.717769265,-26.20935631,26.13290977,30.3883667,-0.516845703,-0.299072266,0.756835938
423,820537011,0.671521,-0.240715,-0.662627,-0.228129,9.382133484,-1.8261379,-0.757607222,-22.11152458,25.15574646,30.38487625,-0.515869141,-0.294677734,0.752929688
424,820545344,0.672908,-0.242591,-0.66058,-0.227992,9.438250542,-1.717207909,-0.747196555,-17.65507126,24.59094429,29.79138374,-0.517333984,-0.292236328,0.750488281
425,820553677,0.674312,-0.244245,-0.658627,-0.22773,9.449480057,-1.5823282,-0.706854403,-14.12020016,24.13001442,28.63784599,-0.520751953,-0.288818359,0.746337891
426,820562010,0.675699,-0.245708,-0.656773,-0.227398,9.432153702,-1.484102011,-0.774902403,-11.46199894,23.45304871,27.21314621,-0.517578125,-0.286376953,0.744873047
427,820570343,0.677082,-0.246985,-0.655008,-0.226991,9.405830383,-1.428582072,-0.799275935,-8.785489082,22.94381142,25.89813423,-0.520507813,-0.281982422,0.739990234
428,820578676,0.678475,-0.248086,-0.653303,-0.226543,9.409845352,-1.413410664,-0.816371262,-6.548336983,22.82132149,24.5019474,-0.520507813,-0.280029297,0.737060547
429,820587009,0.679888,-0.249048,-0.651631,-0.226066,9.395071983,-1.368971109,-0.781188428,-4.842068195,23.07843018,23.48008919,-0.522460938,-0.276123047,0.732910156
430,820595342,0.681328,-0.249889,-0.649964,-0.225602,9.42929554,-1.388416529,-0.696962655,-3.711198807,23.6537571,22.34023094,-0.5234375,-0.272216797,0.731445313
431,820603675,0.682789,-0.250653,-0.64828,-0.225182,9.384232521,-1.456504345,-0.571186602,-3.373628378,24.43358231,21.3521595,-0.5234375,-0.269775391,0.728515625
432,820612008,0.684249,-0.251345,-0.646617,-0.224762,9.397268295,-1.56972146,-0.45998162,-2.628278732,24.40376091,20.63367653,-0.5234375,-0.264892578,0.723632813
433,820620341,0.685719,-0.251905,-0.644993,-0.224318,9.439284325,-1.645429373,-0.460148513,-1.013914704,24.46006584,19.58664703,-0.524902344,-0.265380859,0.720458984
434,820628674,0.687203,-0.252367,-0.643385,-0.223875,9.439126968,-1.79632616,-0.36811474,-0.008017262,24.78154755,18.70133781,-0.524414063,-0.260009766,0.715087891
435,820637007,0.688665,-0.252753,-0.641826,-0.223423,9.445747375,-1.849286795,-0.26936096,0.879145384,24.27623177,17.86475182,-0.52734375,-0.260009766,0.711181641
436,820645340,0.690086,-0.253028,-0.640389,-0.222848,9.427973747,-1.816645265,-0.348637789,3.218699932,22.74634171,17.48983765,-0.530761719,-0.257080078,0.710693359
437,820653673,0.691478,-0.253242,-0.639037,-0.222173,9.434268951,-1.855924487,-0.291152149,4.826404095,21.53004837,17.49559975,-0.52734375,-0.253662109,0.704589844
438,820662006,0.692833,-0.253412,-0.637765,-0.221409,9.373403549,-1.874749541,-0.230590478,6.178068161,20.19241905,17.60079575,-0.529296875,-0.251220703,0.702636719
439,820670339,0.694143,-0.253558,-0.636585,-0.220534,9.29257679,-1.867355943,-0.205505997,7.478862762,18.6842804,17.94861412,-0.53125,-0.248779297,0.696777344
440,820678672,0.695491,-0.25364,-0.635414,-0.219569,9.292508125,-1.75504148,-0.42312026,9.069148064,18.73647881,18.37864685,-0.528808594,-0.245361328,0.6953125
441,820687005,0.69692,-0.25368,-0.634177,-0.218564,9.344801903,-1.67613256,-0.347022921,9.873385429,20.11198997,18.81826782,-0.531738281,-0.241943359,0.692626953
442,820695338,0.698366,-0.253721,-0.632911,-0.217568,9.427398682,-1.612913609,-0.063605875,9.781891823,20.51162529,18.94252205,-0.530761719,-0.238525391,0.690185547
443,820703671,0.699817,-0.253777,-0.631619,-0.216593,9.448217392,-1.532015681,0.036548529,9.390198708,20.84276772,18.96859932,-0.532226563,-0.235107422,0.687744141
444,820712004,0.701268,-0.253805,-0.630324,-0.215638,9.477790833,-1.483048201,0.161482602,9.448444366,21.09319687,18.50205803,-0.532714844,-0.230712891,0.681396484
445,820720337,0.702713,-0.253792,-0.629042,-0.214693,9.561273575,-1.434487462,0.345344096,9.801332474,20.98764229,18.03567505,-0.532958984,-0.229736328,0.677734375
446,820728670,0.704128,-0.253756,-0.627798,-0.213739,9.645201683,-1.40341711,0.395431966,10.09036446,20.51208687,17.63573456,-0.533447266,-0.227294922,0.678955078
447,820737003,0.705526,-0.253698,-0.626574,-0.212785,9.728117943,-1.374623418,0.389930755,10.28354549,20.27044106,17.27966881,-0.531982422,-0.222412109,0.673828125
448,820745336,0.706917,-0.25363,-0.625352,-0.211843,9.849246025,-1.422921777,0.500781059,10.29722404,20.11557579,17.16332817,-0.531005859,-0.221435547,0.668945313
449,820753669,0.708284,-0.25355,-0.624155,-0.210898,9.8865242,-1.445039988,0.589533567,10.37819195,19.85080528,16.82201958,-0.535400391,-0.218994141,0.666992188
450,820762002,0.709641,-0.253455,-0.62296,-0.209984,9.868724823,-1.479658365,0.61049372,10.28800201,19.72816086,16.46257401,-0.533935547,-0.215576172,0.6640625
451,820770335,0.711005,-0.253317,-0.621767,-0.209068,9.784290314,-1.558725119,0.703626931,10.71255875,20.0294857,16.03251266,-0.534912109,-0.210693359,0.662841797
452,820778668,0.712373,-0.253174,-0.620545,-0.208216,9.661641121,-1.577276945,0.861590445,10.18318939,20.4605999,15.56246471,-0.535888672,-0.208251953,0.656982422
453,820787001,0.713711,-0.253025,-0.619336,-0.207415,9.47915554,-1.559364557,0.984033644,9.735836983,20.2579155,14.89452362,-0.535400391,-0.206298828,0.653076172
454,820795334,0.71501,-0.252849,-0.618187,-0.206581,9.37695694,-1.507558107,0.915770471,10.27232647,19.46610069,14.53212929,-0.535888672,-0.206787109,0.650634766
455,820803667,0.716312,-0.25263,-0.617058,-0.205712,9.326467514,-1.446559787,0.829132199,11.10018063,19.13760185,14.57849216,-0.537353516,-0.200927734,0.645507813
456,820812000,0.717627,-0.25239,-0.615928,-0.204807,9.381393433,-1.360301733,0.765064061,11.63252068,19.2983284,14.69793224,-0.538818359,-0.200927734,0.643554688
457,820820333,0.71897,-0.252174,-0.614748,-0.203904,9.478005409,-1.290381908,0.825513065,11.34059525,19.94275665,15.15952492,-0.536865234,-0.196533203,0.641601563
458,820828666,0.720334,-0.251985,-0.613524,-0.203009,9.614348412,-1.238882303,0.870090783,10.97321033,20.42202759,15.59125423,-0.537841797,-0.193603516,0.638183594
459,820836999,0.721695,-0.251826,-0.612272,-0.202152,9.691548347,-1.234555721,0.91657871,10.23723507,20.86159134,15.45053005,-0.538818359,-0.194091797,0.633544922
460,820845332,0.723028,-0.251729,-0.610979,-0.20142,9.753484726,-1.317936182,1.003399849,8.387706757,21.16212463,14.9007206,-0.538085938,-0.187255859,0.629150391
461,820853665,0.724286,-0.251761,-0.609673,-0.200815,9.771767616,-1.381956697,1.203486204,5.698953629,20.90826225,14.41271687,-0.5390625,-0.187255859,0.625244141
462,820861998,0.725443,-0.251911,-0.608385,-0.200356,9.72599411,-1.409413576,1.352215171,3.055024862,19.88881302,13.75335407,-0.539550781,-0.185791016,0.623779297
463,820870331,0.726488,-0.252137,-0.60716,-0.200002,9.641503334,-1.293993473,1.394091368,1.19215095,18.48647881,12.81604958,-0.5390625,-0.184814453,0.619628906
464,820878664,0.727458,-0.25242,-0.605967,-0.199737,9.483457565,-1.115041494,1.419044495,-0.323892146,17.83703041,11.9554882,-0.538085938,-0.181396484,0.617675781
465,820886997,0.728377,-0.25274,-0.604781,-0.199578,9.419165611,-1.065607429,1.456711054,-1.710493565,17.45996094,11.17456055,-0.538574219,-0.179931641,0.614257813
466,820895330,0.729252,-0.253114,-0.603593,-0.199503,9.434920311,-1.132663488,1.432999134,-3.127448082,17.40104866,10.52749252,-0.540039063,-0.178955078,0.61328125
467,820903663,0.730112,-0.253531,-0.602371,-0.199523,9.457715034,-1.239373207,1.443817377,-4.488922596,17.79402542,10.0443573,-0.541015625,-0.178466797,0.611816406
468,820911996,0.730927,-0.254015,-0.601135,-0.199654,9.4539814,-1.332483768,1.543072581,-6.254306793,17.66329002,9.508327484,-0.542480469,-0.176025391,0.608398438
469,820920329,0.731695,-0.254551,-0.599905,-0.199858,9.489249229,-1.413078427,1.611258507,-7.555100441,17.44351578,8.935336113,-0.540527344,-0.174560547,0.606445313
470,820928662,0.732438,-0.255141,-0.598644,-0.200161,9.529233932,-1.50744462,1.695017099,-9.062215805,17.62563324,8.544923782,-0.540527344,-0.173583984,0.602783203
471,820936995,0.733143,-0.255796,-0.597376,-0.200534,9.499555588,-1.555567265,1.709357023,-10.47976112,17.59423256,8.166064262,-0.540527344,-0.173583984,0.599853516
472,820945328,0.733782,-0.256575,-0.596091,-0.201026,9.432972908,-1.655415773,1.805611968,-12.93954754,17.1584816,7.983127594,-0.541992188,-0.172119141,0.596923828
473,820953661,0.734385,-0.257398,-0.594807,-0.201572,9.299751282,-1.736313343,1.761133432,-13.96368313,16.93274689,7.702395916,-0.542480469,-0.172607422,0.595947266
474,820961994,0.734957,-0.258244,-0.593537,-0.202148,9.271245956,-1.790770292,1.77719593,-14.54497337,16.70162964,7.310599804,-0.542480469,-0.171142578,0.593505859
475,820970327,0.735512,-0.259101,-0.592274,-0.202739,9.226493835,-1.856383085,1.709735513,-14.77998352,16.38313866,7.333473682,-0.543457031,-0.170166016,0.592041016
476,820978660,0.736063,-0.259949,-0.591026,-0.203293,9.227937698,-1.929252505,1.701078176,-14.38078594,16.20355797,7.445971966,-0.543457031,-0.169921875,0.588378906
477,820986993,0.736586,-0.26083,-0.589797,-0.203838,9.262982368,-2.049948692,1.699702263,-14.70869827,15.62467575,7.667944431,-0.543945313,-0.169921875,0.586425781
478,820995326,0.737084,-0.261755,-0.588572,-0.204393,9.36968708,-2.109710217,1.785625219,-15.26665497,15.21672058,7.942556381,-0.542236328,-0.167480469,0.583496094
479,821003659,0.737544,-0.262702,-0.587389,-0.204923,9.393957138,-2.077403307,1.799702168,-15.34165192,14.45415783,7.960587502,-0.542236328,-0.166015625,0.582519531
480,821011992,0.737969,-0.263642,-0.586231,-0.2055,9.453092575,-2.012061357,1.859794736,-15.68101501,13.98685169,7.399839878,-0.544189453,-0.166992188,0.581054688
481,821020325,0.738309,-0.264652,-0.585117,-0.206156,9.43218708,-2.052223921,1.920250893,-17.249506,13.07462597,6.580824852,-0.541748047,-0.166503906,0.579589844
482,821028658,0.738575,-0.265687,-0.584058,-0.206872,9.427482605,-2.147228003,1.975162983,-18.05459785,11.93557262,5.938125134,-0.542236328,-0.166503906,0.579101563
483,821036991,0.738767,-0.266736,-0.583073,-0.207611,9.412579536,-2.194101334,1.902665019,-18.44202614,10.62457085,5.333590031,-0.545166016,-0.162597656,0.578613281
484,821045324,0.738932,-0.267795,-0.58212,-0.208337,9.385185242,-2.220751286,1.934820294,-18.4858036,10.14374065,5.181262493,-0.543212891,-0.166015625,0.573974609
485,821053657,0.739074,-0.268891,-0.581164,-0.209089,9.290293694,-2.187744379,2.051278591,-19.16860008,9.98367691,5.145940781,-0.543701172,-0.1640625,0.575439453
486,821061990,0.73915,-0.27006,-0.580233,-0.209896,9.13494873,-2.182586908,2.151962996,-20.48678589,9.068378448,5.071147442,-0.545166016,-0.1640625,0.574462891
487,821070323,0.739175,-0.271316,-0.579312,-0.210731,9.073233604,-2.121331692,2.200786591,-21.78496742,8.520591736,5.132544041,-0.545166016,-0.164550781,0.575439453
488,821078656,0.739177,-0.272642,-0.578357,-0.211632,9.185137749,-2.262322903,2.259772062,-23.17582321,8.608910561,5.245017052,-0.543212891,-0.165039063,0.571533203
489,821086989,0.739133,-0.274038,-0.577411,-0.212567,9.110827446,-2.349950075,2.278561354,-24.32286835,8.175965309,5.129201889,-0.545166016,-0.165039063,0.572021484
490,821095322,0.739017,-0.275448,-0.576527,-0.213545,9.02696228,-2.376335621,2.247601986,-24.87230682,6.991139889,4.519032478,-0.545654297,-0.164550781,0.572021484
491,821103655,0.738868,-0.276812,-0.575701,-0.214524,9.036278725,-2.407526493,2.21867609,-24.37070274,6.284776211,3.823887348,-0.544189453,-0.164550781,0.571533203
492,821111988,0.738673,-0.278172,-0.574922,-0.215522,9.076921463,-2.479980469,2.376455784,-24.54705811,5.612248898,3.13448,-0.544189453,-0.164550781,0.572021484
493,821120321,0.738391,-0.279497,-0.574258,-0.216542,9.063894272,-2.533029079,2.426894903,-24.3248539,3.857493162,2.088649988,-0.545166016,-0.163574219,0.571044922
494,821128654,0.738072,-0.280777,-0.573671,-0.217525,9.171307564,-2.591410398,2.273783445,-23.51349449,2.864402771,1.5321033,-0.544677734,-0.165527344,0.571533203
495,821136987,0.737781,-0.281947,-0.573099,-0.218506,9.212255478,-2.618564129,2.10593009,-22.24310303,3.266443729,0.664036512,-0.544189453,-0.166503906,0.572021484
496,821145320,0.737483,-0.283071,-0.572538,-0.219526,9.347234726,-2.618679523,2.170516253,-22.04822922,3.292954683,0.058105916,-0.544677734,-0.164550781,0.572998047
497,821153653,0.73719,-0.284234,-0.571918,-0.220625,9.370603561,-2.590860844,2.247190237,-23.24884796,4.209534645,-0.418485552,-0.546142578,-0.166015625,0.572998047
498,821161986,0.736875,-0.285359,-0.571296,-0.221828,9.37116909,-2.535850048,2.371587276,-23.7375927,4.483428478,-1.597406745,-0.545654297,-0.168457031,0.572998047
499,821170319,0.736504,-0.286453,-0.570736,-0.22309,9.348114014,-2.550577879,2.495720863,-23.95690536,3.81748414,-3.036723137,-0.546142578,-0.16796875,0.572021484
500,821178652,0.736064,-0.287503,-0.570271,-0.224377,9.223136902,-2.594786644,2.445551872,-23.64853096,2.46371913,-4.052634716,-0.543701172,-0.169433594,0.573974609
501,821186985,0.735594,-0.288482,-0.569884,-0.225642,9.130854607,-2.577759504,2.336765528,-22.63992119,1.589709759,-4.776698589,-0.545166016,-0.172363281,0.572998047
502,821195318,0.735124,-0.289382,-0.569544,-0.226877,9.142355919,-2.553509474,2.202329159,-21.48671722,1.297886729,-5.489287376,-0.545654297,-0.172363281,0.573486328
503,821203651,0.73469,-0.290184,-0.569201,-0.228115,9.181477547,-2.67795682,2.239142895,-20.35156822,1.85965836,-5.963073254,-0.547119141,-0.175292969,0.575439453
504,821211984,0.734264,-0.290979,-0.568848,-0.22935,9.196216583,-2.94480443,2.324607849,-20.30033875,2.111420393,-6.158099651,-0.546142578,-0.175292969,0.572998047
505,821220317,0.733838,-0.29171,-0.568538,-0.23055,9.11979866,-3.147087097,2.341068745,-19.24920654,1.729845047,-6.505377293,-0.547119141,-0.175292969,0.572998047
506,821228650,0.733411,-0.292328,-0.568305,-0.231699,9.072272301,-3.260297775,2.332382679,-17.42903137,1.032036304,-6.902910233,-0.546630859,-0.177246094,0.576660156
507,821236983,0.733003,-0.292827,-0.568147,-0.232743,9.026405334,-3.303740978,2.349145412,-15.12705231,0.434609622,-7.291477203,-0.548095703,-0.179199219,0.576171875
508,821245316,0.7326,-0.293168,-0.568088,-0.233726,9.001079559,-3.297047377,2.3704319,-12.68734932,-0.320152432,-8.020484924,-0.547607422,-0.179199219,0.573974609
509,821253649,0.732198,-0.293369,-0.568145,-0.234593,9.002408028,-3.235697031,2.352400064,-10.03140545,-1.436318278,-8.721749306,-0.548583984,-0.184082031,0.573974609
510,821261982,0.731812,-0.29341,-0.568288,-0.235396,8.996577263,-3.089063168,2.281077385,-7.54344368,-1.978597403,-9.315847397,-0.549316406,-0.18359375,0.578613281
511,821270315,0.731398,-0.293341,-0.56854,-0.236165,8.990281105,-2.951381207,2.30471015,-5.919987679,-3.078702927,-10.36285305,-0.548583984,-0.187011719,0.578613281
512,821278648,0.730955,-0.293191,-0.56889,-0.236876,8.916209221,-2.835723639,2.297333241,-4.51312685,-4.209187984,-11.23176765,-0.549072266,-0.1875,0.577636719
513,821286981,0.730474,-0.292916,-0.569368,-0.237549,8.797184944,-2.726155758,2.173062801,-2.62727809,-5.596865177,-12.14880848,-0.548583984,-0.188964844,0.577636719
514,821295314,0.729972,-0.292562,-0.569931,-0.238179,8.754392624,-2.597112894,2.134469986,-1.349998355,-6.485575676,-13.02734947,-0.549316406,-0.189453125,0.578613281
515,821303647,0.729472,-0.292107,-0.570547,-0.238793,8.749749184,-2.498239517,2.07999754,-0.024077386,-6.76238966,-13.71499062,-0.547119141,-0.193847656,0.578613281
516,821311980,0.72901,-0.291565,-0.571146,-0.239433,8.734631538,-2.419179678,2.071017265,0.776687741,-5.913610935,-14.32143402,-0.550292969,-0.1953125,0.580078125
517,821320313,0.7286,-0.290981,-0.571684,-0.240109,8.784051895,-2.393012285,2.110877275,0.896869779,-4.599497795,-14.71566296,-0.550292969,-0.196777344,0.580078125
518,821328646,0.728216,-0.290375,-0.572181,-0.240821,8.84859848,-2.361813068,2.169009924,0.824996173,-3.792418718,-14.87989998,-0.55078125,-0.202148438,0.583007813
519,821336979,0.727842,-0.289725,-0.572693,-0.241516,8.96141243,-2.355813742,2.229385614,1.470013976,-3.752614021,-15.21426868,-0.549316406,-0.201171875,0.582519531
520,821345312,0.727475,-0.288963,-0.573269,-0.242168,9.167805672,-2.251626968,2.22149992,3.1936481,-4.164927483,-15.78052521,-0.549804688,-0.204589844,0.583496094
521,821353645,0.727138,-0.288096,-0.573881,-0.242763,9.33761692,-2.104540586,2.237337589,4.928462029,-4.159368992,-16.06392097,-0.552246094,-0.207519531,0.583007813
522,821361978,0.726799,-0.287235,-0.574495,-0.243344,9.480443954,-2.034963846,2.307585001,4.941102505,-4.263233662,-16.17997742,-0.551269531,-0.210449219,0.584960938
523,821370311,0.726406,-0.286412,-0.575136,-0.243974,9.580598831,-1.966733217,2.342773199,4.081923485,-4.897493839,-16.37023735,-0.551757813,-0.212890625,0.582519531
524,821378644,0.725963,-0.285663,-0.575802,-0.244598,9.531400681,-1.904387116,2.264560223,3.231966257,-5.81353569,-16.36194038,-0.551269531,-0.213378906,0.58203125
525,821386977,0.725467,-0.28497,-0.57649,-0.245259,9.524222374,-1.858758807,2.237785578,2.2614429,-6.504582405,-16.47016335,-0.553222656,-0.216796875,0.583496094
526,821395310,0.724906,-0.284328,-0.577189,-0.246015,9.543097496,-1.77570498,2.289556265,0.807168901,-6.92235136,-16.99026108,-0.5546875,-0.21875,0.583496094
527,821403643,0.724297,-0.283756,-0.577879,-0.246848,9.50055027,-1.6919173,2.337958813,-0.749190927,-7.165198803,-17.660326,-0.552734375,-0.220214844,0.586425781
528,821411976,0.723618,-0.283222,-0.57859,-0.247787,9.431726456,-1.664794326,2.381802559,-2.135792494,-7.627025604,-18.41579628,-0.552246094,-0.225585938,0.586425781
529,821420309,0.72287,-0.282747,-0.579344,-0.248747,9.432700157,-1.625539899,2.38036418,-3.045636177,-8.760404587,-18.91512108,-0.554199219,-0.227050781,0.58984375
530,821428642,0.722039,-0.28228,-0.580209,-0.249675,9.470414162,-1.522342801,2.224343538,-2.789160728,-10.645895,-18.87693024,-0.555664063,-0.232421875,0.590332031
531,821436975,0.721144,-0.281804,-0.581197,-0.250498,9.594587326,-1.438782215,2.084746361,-1.683957338,-12.74867249,-18.61963654,-0.553710938,-0.231933594,0.591552734
532,821445308,0.720187,-0.281355,-0.582313,-0.251165,9.671154022,-1.358806849,1.937374711,-0.542535305,-15.24144936,-17.9571743,-0.552246094,-0.237792969,0.595458984
533,821453641,0.719141,-0.280875,-0.583618,-0.251669,9.788759232,-1.358210087,1.789562821,1.422218204,-18.33542061,-17.23447037,-0.553222656,-0.239746094,0.595458984
534,821461974,0.718032,-0.280393,-0.585077,-0.251984,9.916619301,-1.306002855,1.514640808,3.202383995,-21.10809326,-16.52585602,-0.554199219,-0.239746094,0.598388672
535,821470307,0.716855,-0.27992,-0.586669,-0.252162,10.01683235,-1.21722424,1.27654767,4.426590919,-23.51626396,-15.74228859,-0.554199219,-0.244628906,0.602783203
536,821478640,0.715593,-0.279471,-0.588359,-0.252304,10.09604263,-1.160545826,1.056096792,4.532352448,-25.36136627,-15.64101219,-0.551757813,-0.24609375,0.607910156
537,821486973,0.714278,-0.279075,-0.59008,-0.252452,10.13924122,-1.098332763,0.83398211,3.836695671,-26.28332901,-15.72623253,-0.552246094,-0.248535156,0.609375
538,821495306,0.712882,-0.278747,-0.591814,-0.252702,10.15761375,-1.002519608,0.691528559,2.107477188,-26.89561462,-16.34742928,-0.554199219,-0.250976563,0.612792969
539,821503639,0.711394,-0.2785,-0.59356,-0.253069,10.12640858,-0.950963259,0.595407248,0.017276816,-27.59902573,-17.34820175,-0.55078125,-0.252929688,0.616699219
540,821511972,0.70981,-0.278281,-0.59535,-0.253555,9.943994522,-0.801362216,0.535321712,-1.425279856,-28.44717216,-18.64218521,-0.551513672,-0.255859375,0.621337891
541,821520305,0.708159,-0.278029,-0.597187,-0.254126,9.881536484,-0.612307549,0.52906388,-1.869021535,-29.01601982,-20.16260147,-0.549560547,-0.258300781,0.625244141
542,821528638,0.706493,-0.277773,-0.598981,-0.254823,9.887991905,-0.450677544,0.612422466,-3.126681566,-28.23060226,-21.52591705,-0.549560547,-0.264160156,0.629150391
543,821536971,0.70478,-0.277556,-0.600706,-0.255737,9.76066494,-0.300524473,0.755484462,-5.674865723,-27.2586441,-22.98641777,-0.550048828,-0.267578125,0.636230469
544,821545304,0.702985,-0.277382,-0.602452,-0.25676,9.700184822,-0.175319925,0.741153777,-7.293483734,-27.85692406,-24.41918373,-0.547607422,-0.269042969,0.639160156
545,821553637,0.701117,-0.277154,-0.604287,-0.257798,9.758850098,0.031696849,0.688821971,-6.865264893,-29.08312988,-25.62136459,-0.548583984,-0.270996094,0.641113281
546,821561970,0.699185,-0.276887,-0.606181,-0.258882,9.865398407,0.212741017,0.632319927,-6.84139204,-29.86969757,-26.46497154,-0.548583984,-0.27734375,0.646972656
547,821570303,0.697213,-0.276658,-0.608073,-0.260007,9.856482506,0.282268256,0.723357916,-7.771754742,-30.15086937,-27.04929161,-0.547119141,-0.279785156,0.649658203
548,821578636,0.695191,-0.276464,-0.609958,-0.261209,9.922246933,0.281850934,0.677555799,-8.898476601,-30.36036873,-27.27815056,-0.546630859,-0.286132813,0.654541016
549,821586969,0.693182,-0.276299,-0.6118,-0.262412,9.946694374,0.311049193,0.417880863,-9.350516319,-29.90909767,-27.15407562,-0.543212891,-0.291015625,0.660400391
550,821595302,0.69122,-0.276138,-0.613551,-0.263667,10.0243206,0.313907593,0.372122616,-9.914413452,-28.48201942,-26.78353882,-0.544189453,-0.293945313,0.665039063
551,821603635,0.689332,-0.276023,-0.615174,-0.264946,10.05384922,0.219166115,0.503090739,-10.74644089,-26.71027565,-25.87509727,-0.545898438,-0.299316406,0.669433594
552,821611968,0.687464,-0.275978,-0.616712,-0.266265,10.03642178,0.111898459,0.497851908,-12.03094578,-25.82945442,-25.50840569,-0.54296875,-0.303710938,0.674316406
553,821620301,0.68557,-0.27596,-0.618239,-0.267625,10.06352711,0.075167,0.642425776,-12.75567341,-25.88029671,-25.67092514,-0.54296875,-0.308105469,0.676269531
554,821628634,0.683613,-0.275914,-0.619845,-0.268959,10.11185837,0.17907083,0.671480954,-12.17953587,-27.17648888,-25.99825478,-0.542480469,-0.312011719,0.681396484
555,821636967,0.681623,-0.275801,-0.621543,-0.270203,10.27323914,0.365144104,0.612367809,-10.60592079,-28.41134644,-26.35111427,-0.540527344,-0.314453125,0.683837891
556,821645300,0.67958,-0.275619,-0.623343,-0.271387,10.41298866,0.596793234,0.553759098,-9.245393753,-29.79769135,-26.81055641,-0.538085938,-0.319824219,0.690185547
557,821653633,0.677509,-0.275344,-0.625258,-0.272436,10.50935745,0.807617664,0.521207333,-6.883938789,-31.27249336,-26.94900703,-0.540527344,-0.323730469,0.694824219
558,821661966,0.675371,-0.275012,-0.627303,-0.273377,10.56056404,0.919391513,0.42638436,-5.186456203,-33.26019287,-27.11445618,-0.5390625,-0.330566406,0.697753906
559,821670299,0.673186,-0.274638,-0.629451,-0.274203,10.57099819,0.968143106,0.301157564,-3.605338097,-34.90040207,-26.96878815,-0.537109375,-0.333984375,0.703613281
560,821678632,0.670964,-0.27424,-0.631699,-0.274878,10.56093025,0.990431607,0.122680165,-1.846200347,-36.62388611,-26.33647346,-0.537109375,-0.339355469,0.708740234
561,821686965,0.668723,-0.273793,-0.634039,-0.275398,10.46337605,1.028381705,-0.122541212,0.247677281,-38.02990723,-25.70600319,-0.533203125,-0.342773438,0.713134766
562,821695298,0.666478,-0.27334,-0.636411,-0.275819,10.39476871,1.022663593,-0.305052817,1.264871597,-38.72346497,-25.02479172,-0.530273438,-0.345703125,0.718994141
563,821703631,0.664223,-0.272967,-0.638748,-0.276222,10.24887943,0.969515383,-0.30136022,0.51104337,-38.84541321,-24.07017517,-0.530273438,-0.349609375,0.724609375
564,821711964,0.661971,-0.27258,-0.641101,-0.276562,10.12981033,0.900352061,-0.480076581,1.273324251,-39.15311813,-23.62440872,-0.52734375,-0.353515625,0.729980469
565,821720297,0.659775,-0.27216,-0.643411,-0.276858,10.09108067,0.90717572,-0.643153727,1.976512671,-38.29398727,-23.22533417,-0.525390625,-0.35546875,0.734619141
566,821728630,0.657643,-0.271727,-0.645644,-0.277158,10.0850172,0.829806983,-0.615884244,2.041393757,-36.98778152,-22.76007843,-0.522460938,-0.359130859,0.741943359
567,821736963,0.655591,-0.27133,-0.647753,-0.277484,10.05869293,0.881095707,-0.659263492,1.279958129,-35.16168976,-22.02241135,-0.524169922,-0.363037109,0.747802734
568,821745296,0.653646,-0.270898,-0.649755,-0.277815,10.04950333,0.946820319,-0.782386303,1.571576118,-33.12508774,-21.45668602,-0.518798828,-0.365478516,0.751464844
569,821753629,0.651798,-0.270506,-0.651643,-0.278118,9.987315178,1.057676673,-0.862991035,1.392814159,-31.48262024,-20.05033493,-0.521240234,-0.368408203,0.755371094
570,821761962,0.650063,-0.270138,-0.653399,-0.278416,10.00490665,1.132626653,-0.926314116,1.085289121,-29.36910629,-18.97988701,-0.518798828,-0.371337891,0.760253906
571,821770295,0.648403,-0.269808,-0.655038,-0.278754,9.920786858,1.126749396,-0.852870345,0.266759723,-27.68232727,-18.16704369,-0.518310547,-0.375244141,0.763916016
572,821778628,0.646758,-0.269532,-0.656632,-0.279095,9.889442444,1.187467813,-0.903950095,-0.411211282,-27.28537941,-17.59189606,-0.514892578,-0.377197266,0.766845703
573,821786961,0.645149,-0.269279,-0.658148,-0.279491,9.853437424,1.241734862,-0.949245751,-1.288909435,-26.13573837,-17.46835899,-0.513427734,-0.379638672,0.772705078
574,821795294,0.643542,-0.269059,-0.659597,-0.27999,9.803388596,1.252599239,-0.881914556,-2.703174829,-25.34092712,-17.69776154,-0.511962891,-0.381591797,0.775146484
575,821803627,0.64192,-0.268843,-0.661031,-0.280541,9.702531815,1.252076626,-0.832527697,-3.396860361,-25.06813431,-18.26194,-0.510986328,-0.382568359,0.779785156
576,821811960,0.640267,-0.268587,-0.662479,-0.281147,9.644993782,1.21790421,-0.857971787,-3.530925512,-25.21198463,-19.13941002,-0.510498047,-0.389404297,0.783203125
577,821820293,0.638631,-0.268314,-0.66389,-0.281798,9.569969177,1.235539317,-0.860073745,-3.951537371,-24.38400269,-19.6641922,-0.510498047,-0.389404297,0.786132813
578,821828626,0.63702,-0.268037,-0.665248,-0.282506,9.519331932,1.213764071,-0.836384594,-4.466794014,-23.58547974,-19.7285614,-0.505615234,-0.394775391,0.790039063
579,821836959,0.635427,-0.267775,-0.666568,-0.283229,9.412502289,1.188434958,-0.802940547,-4.830976486,-23.0751915,-19.51949692,-0.506103516,-0.397216797,0.794189453
580,821845292,0.633879,-0.267515,-0.667839,-0.283948,9.260772705,1.127594709,-0.770254374,-4.891579628,-22.1681118,-19.21985817,-0.504638672,-0.400634766,0.795166016
581,821853625,0.632387,-0.267236,-0.669075,-0.284628,9.16546154,1.129707932,-0.763801694,-4.225199699,-21.51912498,-18.60194206,-0.502685547,-0.403076172,0.798095703
582,821861958,0.630984,-0.266886,-0.670295,-0.285199,9.201443672,1.138006926,-0.755722463,-2.387145758,-20.62982178,-17.9574337,-0.502197266,-0.406005859,0.802978516
583,821870291,0.629682,-0.266443,-0.671511,-0.285628,9.256819725,1.127959967,-0.808701992,0.093965881,-19.83921051,-17.13713837,-0.503173828,-0.409423828,0.805175781
584,821878624,0.628538,-0.265858,-0.672714,-0.285863,9.331441879,1.098239899,-0.858864248,3.675427675,-18.44356728,-16.07640076,-0.499755859,-0.411865234,0.807128906
585,821886957,0.627549,-0.265132,-0.673918,-0.285873,9.295549393,1.03941524,-1.017032385,7.511057377,-17.26074791,-14.86717415,-0.501220703,-0.413330078,0.808105469
586,821895290,0.626666,-0.264337,-0.675122,-0.285706,9.274224281,0.98513025,-1.175505519,10.1585722,-16.6876564,-13.52214622,-0.498291016,-0.414306641,0.812988281
587,821903623,0.625847,-0.263523,-0.676345,-0.285361,9.358564377,1.052272797,-1.309981585,12.26759911,-16.77986908,-12.01958847,-0.496826172,-0.417236328,0.815429688
588,821911956,0.62509,-0.262747,-0.677542,-0.284897,9.47429657,1.130732656,-1.451659322,13.18302345,-16.60551071,-10.27640915,-0.495849609,-0.415771484,0.816894531
589,821920289,0.624428,-0.261977,-0.678692,-0.28432,9.71451664,1.195765018,-1.438030124,14.35131836,-15.75322533,-8.695935249,-0.495849609,-0.416748047,0.822021484
590,821928622,0.623871,-0.2612,-0.679776,-0.283665,9.808785439,1.257428288,-1.337911487,15.20836926,-14.3650341,-7.50715065,-0.491943359,-0.417236328,0.822021484
591,821936955,0.623422,-0.260393,-0.680791,-0.282962,9.775769234,1.380221963,-1.280303478,16.08250618,-12.91336918,-6.641235828,-0.491943359,-0.417236328,0.824462891
592,821945288,0.623047,-0.259623,-0.681707,-0.282287,9.701280594,1.535440326,-1.234819651,15.31966019,-11.27118874,-5.985151291,-0.492431641,-0.416259766,0.824462891
593,821953621,0.622712,-0.258932,-0.682511,-0.281719,9.592279434,1.736727118,-1.015811563,13.33166027,-9.847444534,-5.59230566,-0.490966797,-0.417236328,0.825927734
594,821961954,0.622367,-0.258362,-0.683225,-0.281273,9.543275833,1.835023284,-0.701693535,10.84556961,-9.36433506,-5.151279449,-0.490966797,-0.419189453,0.828369141
595,821970287,0.621979,-0.257952,-0.683865,-0.280953,9.568508148,1.919555664,-0.70350337,7.769401073,-9.137649536,-4.695116043,-0.488525391,-0.416748047,0.828857422
596,821978620,0.621566,-0.257722,-0.684381,-0.28082,9.612612724,1.890023947,-1.020246029,3.993963718,-8.515069962,-4.189950943,-0.489501953,-0.418212891,0.830322266
597,821986953,0.621126,-0.257661,-0.684791,-0.280849,9.654655457,1.626005411,-0.949633896,0.433123946,-7.761574268,-3.766189337,-0.488037109,-0.419189453,0.832275391
598,821995286,0.620662,-0.25769,-0.685168,-0.28093,9.555991173,1.282041907,-0.760184348,-0.949365973,-8.050784111,-3.280107737,-0.489013672,-0.418212891,0.833007813
599,822003619,0.620218,-0.2577,-0.685546,-0.280979,9.456668854,1.071931362,-0.796643317,-0.421277285,-7.899019718,-3.112897873,-0.487060547,-0.420166016,0.833007813
600,822011952,0.619808,-0.257623,-0.685963,-0.280937,9.261384964,0.844293833,-0.868492842,1.377751231,-7.73140049,-3.206978798,-0.487060547,-0.420654297,0.834960938
601,822020285,0.619462,-0.257458,-0.68641,-0.280758,9.201508522,0.682285368,-0.91699028,3.849346161,-7.709552288,-2.684141636,-0.484619141,-0.420166016,0.834472656
602,822028618,0.619263,-0.257167,-0.68686,-0.280365,9.257590294,0.699436009,-1.202705145,7.423095703,-6.533141613,-1.521229625,-0.487548828,-0.421142578,0.838378906
603,822036951,0.619264,-0.256676,-0.687313,-0.2797,9.324573517,0.693893969,-1.544572353,12.43705654,-4.884942532,-0.306448728,-0.484130859,-0.420654297,0.835449219
604,822045284,0.61938,-0.256044,-0.687821,-0.278774,9.457963943,0.757057786,-1.485612154,16.73228455,-4.703185081,0.820744336,-0.486083984,-0.418212891,0.838867188
605,822053617,0.619574,-0.255397,-0.688314,-0.277717,9.552172661,0.9615255,-1.624770641,18.29575539,-4.130911827,2.137137175,-0.487060547,-0.417724609,0.838867188
606,822061950,0.619834,-0.254717,-0.688798,-0.276557,9.642964363,1.147493601,-1.641104341,19.78020096,-3.772286177,3.00927639,-0.486572266,-0.416259766,0.839355469
607,822070283,0.620107,-0.254026,-0.689291,-0.275353,9.806490898,1.354277492,-1.571725726,20.28395844,-3.63484025,3.252356052,-0.484130859,-0.414306641,0.840820313
608,822078616,0.620363,-0.253374,-0.689746,-0.274233,10.00187969,1.460523248,-1.548996329,19.03365326,-3.536021471,3.009712458,-0.484619141,-0.412353516,0.838867188
609,822086949,0.620569,-0.252811,-0.690141,-0.273294,10.23790359,1.519498706,-1.467237592,16.16254807,-3.188588619,2.331753969,-0.484619141,-0.409912109,0.83984375
610,822095282,0.620728,-0.25232,-0.690505,-0.272463,10.36020851,1.520977974,-1.461168885,14.20392704,-3.16548419,2.012523413,-0.485595703,-0.411376953,0.840332031
611,822103615,0.620825,-0.251873,-0.690883,-0.271697,10.35882092,1.536760807,-1.598884463,13.08586693,-3.931324482,1.613402486,-0.483642578,-0.409423828,0.840332031
612,822111948,0.620915,-0.25146,-0.691234,-0.27098,10.42601204,1.472173333,-1.664220214,12.18949604,-3.666115284,1.575442314,-0.484130859,-0.408935547,0.842285156
613,822120281,0.621018,-0.251053,-0.691548,-0.27032,10.35135937,1.418674827,-1.610232949,11.50779819,-3.08041954,1.341712236,-0.486328125,-0.407470703,0.842773438
614,822128614,0.621126,-0.250603,-0.691863,-0.26968,10.21500969,1.358051419,-1.512343764,11.71560764,-2.824968815,0.751457751,-0.482666016,-0.407470703,0.842285156
615,822136947,0.621266,-0.25013,-0.692136,-0.269099,10.08576679,1.27050364,-1.45505631,11.28979492,-1.842815995,0.312071025,-0.484619141,-0.405517578,0.841308594
616,822145280,0.621464,-0.249637,-0.692356,-0.26853,10.01583385,1.209080219,-1.536140919,11.37160683,-0.759205997,0.416218549,-0.482666016,-0.407958984,0.842773438
617,822153613,0.621753,-0.249087,-0.692546,-0.267883,9.93856144,1.176874161,-1.647170067,12.77014637,0.391987532,0.972611129,-0.483642578,-0.403564453,0.842773438
618,822161946,0.622179,-0.248422,-0.692702,-0.267107,9.75152874,1.190106273,-1.612793922,15.35257339,1.877767205,1.594166279,-0.484863281,-0.404052734,0.843261719
619,822170279,0.622746,-0.247621,-0.692847,-0.266151,9.574957848,1.154735088,-1.679948568,18.66946602,3.2131145,2.407059908,-0.485351563,-0.400146484,0.842773438
620,822178612,0.623467,-0.246734,-0.692938,-0.265048,9.529104233,1.130195737,-1.762574553,21.09739494,5.108723164,3.58457303,-0.484619141,-0.400634766,0.841308594
621,822186945,0.624334,-0.245853,-0.692928,-0.26385,9.709820747,1.077844381,-1.906547427,22.0516777,7.114293575,5.34649992,-0.486816406,-0.398193359,0.842285156
622,822195278,0.625444,-0.244904,-0.692775,-0.262501,9.627106667,1.116345644,-2.197824717,24.43478012,10.14489555,7.346000671,-0.484130859,-0.397216797,0.840820313
623,822203611,0.626717,-0.243884,-0.692568,-0.260955,9.680068016,1.148052454,-2.225306273,27.2225132,11.99399185,9.145020485,-0.48828125,-0.393798828,0.839355469
624,822211944,0.628134,-0.242882,-0.692238,-0.259354,9.815842628,1.248582721,-2.114621401,27.69455719,13.92914772,10.72524166,-0.488769531,-0.392333984,0.838378906
625,822220277,0.62968,-0.241868,-0.691811,-0.257686,9.984679222,1.38772428,-2.084907532,28.48222733,15.99650097,11.96589375,-0.487548828,-0.386962891,0.833984375
626,822228610,0.631311,-0.240879,-0.69129,-0.256016,10.05994034,1.440789223,-1.877066731,28.25945663,17.34578514,12.82376766,-0.489746094,-0.382568359,0.833251953
627,822236943,0.632937,-0.239989,-0.690708,-0.254402,10.12487125,1.434452534,-1.656469464,26.65893173,17.66924477,13.47734261,-0.4921875,-0.380615234,0.831298828
628,822245276,0.634569,-0.239117,-0.690115,-0.252763,10.12478447,1.430971146,-1.697145939,26.69417,17.75984192,13.91882801,-0.493652344,-0.374755859,0.828369141
629,822253609,0.636166,-0.23827,-0.689542,-0.251108,10.17788124,1.294207811,-1.835413337,26.590765,17.02637482,14.09758949,-0.491943359,-0.371826172,0.826416016
630,822261942,0.637766,-0.237461,-0.688953,-0.249424,10.26089287,1.054961562,-1.828535557,26.48308372,17.04968452,14.79598808,-0.492919922,-0.369873047,0.822998047
631,822270275,0.639361,-0.236699,-0.688346,-0.247735,10.33987904,0.855878115,-1.739818692,26.04041672,16.95952225,15.31413937,-0.493896484,-0.366455078,0.820068359
632,822278608,0.640946,-0.235941,-0.687746,-0.246024,10.42828751,0.779218912,-1.694406271,26.21610641,16.66086006,15.48939228,-0.496337891,-0.362548828,0.817382813
633,822286941,0.642508,-0.235176,-0.687183,-0.24425,10.30400658,0.665212035,-1.745372534,26.91717339,15.98413372,15.77596664,-0.497314453,-0.359130859,0.814453125
634,822295274,0.644157,-0.234297,-0.686609,-0.242355,9.914106369,0.665256381,-1.483810902,29.32225227,16.85322571,16.09650612,-0.496337891,-0.354248047,0.811523438
635,822303607,0.64586,-0.233343,-0.68601,-0.240435,9.399912834,0.430636853,-1.009878874,30.28424644,17.86240387,15.89942932,-0.499267578,-0.351806641,0.809570313
636,822311940,0.647576,-0.232434,-0.685335,-0.238616,9.659358978,0.474922299,-1.157274127,28.74674988,18.71796989,15.6744833,-0.501220703,-0.348388672,0.804931641
637,822320273,0.649445,-0.231278,-0.684613,-0.236724,9.777353287,0.760005236,-1.709925413,31.97546196,21.16252518,14.6656189,-0.501708984,-0.343994141,0.801025391
638,822328606,0.651429,-0.229999,-0.683759,-0.234982,9.875118256,0.864087939,-1.38733387,31.54788589,24.55462837,12.98107147,-0.501708984,-0.339599609,0.799560547
639,822336939,0.653579,-0.22858,-0.682752,-0.233321,9.817657471,0.909562588,-1.236767769,32.12123489,27.93202209,11.93921089,-0.503662109,-0.336669922,0.794677734
640,822345272,0.655802,-0.227098,-0.68169,-0.231627,9.904317856,0.659815729,-1.204674602,33.00022507,29.50927544,12.06241798,-0.504638672,-0.332763672,0.792724609
641,822353605,0.65804,-0.225744,-0.68054,-0.229979,10.17813873,0.252059162,-1.01913619,31.170187,30.19750977,13.19129181,-0.508056641,-0.329345703,0.786621094
642,822361938,0.66025,-0.224512,-0.679356,-0.228347,10.27854729,0.170485333,-0.917288423,29.78598404,29.59462357,14.17003632,-0.509033203,-0.325927734,0.782714844
643,822370271,0.662391,-0.223274,-0.678255,-0.226624,10.40001011,0.243221045,-0.970534027,30.71183968,28.06824493,14.47243881,-0.510986328,-0.318603516,0.779296875
644,822378604,0.664479,-0.222076,-0.67719,-0.22487,10.45944881,0.340949774,-0.92096734,30.60110855,26.89559364,14.85283375,-0.512451172,-0.317626953,0.772705078
645,822386937,0.666517,-0.220907,-0.67614,-0.223142,10.37006378,0.377355188,-0.832397759,29.98307991,26.34493065,14.68539333,-0.512939453,-0.316162109,0.769775391
646,822395270,0.668513,-0.219791,-0.675066,-0.221521,10.08178043,0.494567573,-0.607938349,28.30511475,26.2737236,14.13056087,-0.513427734,-0.309814453,0.763671875
647,822403603,0.670455,-0.21869,-0.673993,-0.220001,9.754601479,0.705541492,-0.477721214,27.07988358,26.02119446,13.18011856,-0.515869141,-0.305908203,0.76171875
648,822411936,0.672336,-0.217563,-0.672939,-0.218599,9.587572098,0.888005376,-0.452113211,26.07172775,25.85561752,11.61270237,-0.516357422,-0.304443359,0.758789063
649,822420269,0.674161,-0.216459,-0.67187,-0.217358,9.444369316,0.945712924,-0.22340399,24.17549706,25.74606133,10.20327473,-0.518798828,-0.301513672,0.752441406
650,822428602,0.675893,-0.21548,-0.670805,-0.216241,9.31998539,0.978298783,-0.183220714,21.56535149,25.2272644,9.966341972,-0.519287109,-0.299072266,0.747802734
651,822436935,0.677575,-0.214707,-0.66969,-0.215199,9.302721024,1.061123967,-0.255820543,18.68845749,24.61874962,11.12797356,-0.521240234,-0.294677734,0.746337891
652,822445268,0.679233,-0.214141,-0.668515,-0.214187,9.321400642,1.085996628,-0.294234216,16.24529266,24.27807808,12.86362267,-0.524658203,-0.295166016,0.741943359
653,822453601,0.680881,-0.213798,-0.667242,-0.213267,9.453769684,0.961505771,-0.08346504,13.0023241,24.85437584,14.32734776,-0.524658203,-0.291748047,0.738037109
654,822461934,0.682511,-0.213633,-0.665899,-0.212416,9.640607834,0.728237331,0.009029022,10.43905163,24.8743763,15.44871521,-0.5234375,-0.288818359,0.733398438
655,822470267,0.684168,-0.21353,-0.664502,-0.211562,9.908177376,0.542137086,-0.174473569,9.799643517,25.72922516,16.32349205,-0.523925781,-0.285400391,0.728515625
656,822478600,0.685935,-0.213435,-0.662965,-0.210759,10.17109203,0.457667857,-0.43204096,9.188232422,27.89455795,16.60881233,-0.526367188,-0.283447266,0.726074219
657,822486933,0.687727,-0.21339,-0.661349,-0.21004,10.4224577,0.453421503,-0.236397922,7.800554276,28.97957802,16.5723114,-0.52734375,-0.278076172,0.718505859
658,822495266,0.689572,-0.213358,-0.659639,-0.209398,10.61681843,0.540093422,-0.166308805,6.832104683,30.78943062,16.44121742,-0.529296875,-0.278076172,0.716552734
659,822503599,0.691379,-0.213456,-0.657857,-0.208946,10.62106609,0.491636246,0.108333148,3.572383165,31.04865456,15.86763954,-0.529785156,-0.275146484,0.711669922
660,822511932,0.693145,-0.213601,-0.656067,-0.208573,10.70752621,0.427951813,0.260578543,2.285188913,30.92669678,15.46764278,-0.531738281,-0.273681641,0.70703125
661,822520265,0.694813,-0.213832,-0.654319,-0.208278,10.67329597,0.410587698,0.370301813,0.574361265,29.60461235,15.09618473,-0.530761719,-0.269287109,0.701660156
662,822528598,0.696393,-0.21409,-0.652647,-0.207983,10.53592205,0.401425779,0.348303705,0.288762301,27.95374489,14.83929825,-0.532226563,-0.267822266,0.696777344
663,822536931,0.697893,-0.21439,-0.651034,-0.207696,10.35849667,0.377078861,0.433671981,-0.258191675,26.62910271,14.7564621,-0.534179688,-0.265869141,0.692138672
664,822545264,0.699297,-0.214759,-0.649498,-0.207403,10.16564369,0.359496176,0.640944242,-0.920704365,24.76169968,14.90973759,-0.536132813,-0.262451172,0.688720703
665,822553597,0.700597,-0.215184,-0.648048,-0.207112,9.986624718,0.401570946,0.811259151,-1.557141662,22.9899807,14.88842583,-0.534667969,-0.262451172,0.684326172
666,822561930,0.701812,-0.215655,-0.646676,-0.206797,9.883993149,0.45348984,0.893983781,-1.794637084,21.14870262,15.02305603,-0.535644531,-0.260498047,0.680908203
667,822570263,0.702998,-0.216115,-0.64536,-0.206403,9.876953125,0.536026895,0.709694445,-0.919218481,20.13826942,15.42463207,-0.535400391,-0.256103516,0.678955078
668,822578596,0.70418,-0.216578,-0.644058,-0.205952,9.982855797,0.545518935,0.62334162,-0.433726072,20.13752556,16.05525398,-0.536621094,-0.254638672,0.678466797
669,822586929,0.705414,-0.217111,-0.642672,-0.205496,10.15434742,0.412511706,0.665605783,-1.137349725,20.83856583,17.01817513,-0.538330078,-0.251708984,0.673339844
670,822595262,0.706618,-0.217748,-0.641269,-0.205069,10.20677853,0.296911359,0.745857835,-2.550282717,20.91256332,17.72148705,-0.537353516,-0.250244141,0.670410156
671,822603595,0.707774,-0.218444,-0.639895,-0.204633,10.16938496,0.16265431,0.717734098,-3.095124006,19.81384277,18.06792259,-0.538818359,-0.250244141,0.669433594
672,822611928,0.708905,-0.219143,-0.638556,-0.204154,10.11227703,0.050013456,0.720396221,-2.717672348,18.94280434,18.28239059,-0.539794922,-0.244384766,0.6640625
673,822620261,0.709986,-0.219824,-0.637291,-0.203617,10.08464813,-0.025956906,0.660989642,-1.977983475,17.8492527,18.3875885,-0.540283203,-0.242431641,0.660400391
674,822628594,0.711015,-0.220512,-0.636062,-0.203122,10.01770401,-0.185103223,0.648358703,-2.46567893,16.97373009,17.7223053,-0.539306641,-0.240478516,0.659423828
675,822636927,0.711967,-0.221202,-0.634897,-0.202683,9.982812881,-0.247543946,0.659799933,-3.054934263,16.08132744,16.87078476,-0.541259766,-0.237548828,0.658935547
676,822645260,0.712856,-0.22191,-0.633756,-0.202357,9.895397186,-0.286637306,0.697077215,-4.313105106,15.35283089,15.58435726,-0.540771484,-0.236572266,0.654541016
677,822653593,0.713705,-0.222542,-0.63267,-0.202066,10.0488987,-0.520796716,0.631055951,-3.849411726,14.75971127,14.30692768,-0.539794922,-0.232666016,0.651123047
678,822661926,0.714488,-0.223242,-0.631603,-0.201864,10.12857151,-0.593561947,0.869504631,-5.448123932,14.45269585,13.89517593,-0.540771484,-0.230712891,0.646972656
679,822670259,0.715302,-0.223964,-0.630458,-0.201762,9.967972755,-0.657392502,1.106738448,-6.648676872,15.37477112,13.31131268,-0.540771484,-0.228759766,0.647460938
680,822678592,0.715903,-0.224944,-0.629398,-0.201849,9.558717728,-0.869446874,0.832209408,-11.25250626,12.77157211,12.9112711,-0.541748047,-0.227294922,0.646972656
681,822686925,0.716615,-0.22554,-0.628499,-0.201458,9.299009323,-0.452347517,0.030496398,-2.540548563,11.95753479,14.16812134,-0.542724609,-0.228271484,0.64453125
682,822695258,0.717622,-0.226125,-0.627291,-0.200984,9.105922699,0.004098213,0.202013865,-1.650428414,16.88912773,16.53946495,-0.542236328,-0.223388672,0.642089844
683,822703591,0.718913,-0.226868,-0.625637,-0.200689,8.930866241,0.20081839,0.269223511,-5.100771427,23.9477787,18.32542419,-0.542236328,-0.220947266,0.638671875
684,822711924,0.720489,-0.227699,-0.623585,-0.200485,9.085021973,0.054047316,0.150652885,-6.964492321,30.29361343,20.17974854,-0.542236328,-0.220214844,0.632080078
685,822720257,0.722245,-0.228759,-0.621154,-0.200504,9.494942665,-0.483805001,0.448789239,-11.62337399,35.71268845,21.64425468,-0.544189453,-0.216308594,0.628662109
686,822728590,0.72399,-0.230084,-0.618528,-0.200813,9.844565392,-1.049158335,0.930207491,-17.31850815,37.66735458,21.58852386,-0.541992188,-0.213867188,0.624267578
687,822736923,0.72564,-0.231444,-0.615938,-0.201253,10.06806946,-1.413279176,1.138560534,-18.96901894,36.83488846,20.20353508,-0.545410156,-0.210449219,0.619140625
688,822745256,0.727211,-0.232633,-0.613485,-0.201704,10.19768429,-1.525859952,1.238217831,-17.23456573,35.73011017,18.13020897,-0.546875,-0.209960938,0.613769531
689,822753589,0.728728,-0.233631,-0.611158,-0.202139,10.08455181,-1.544750452,1.289115429,-15.01331902,34.19906235,16.03756905,-0.545410156,-0.206542969,0.610351563
690,822761922,0.730137,-0.234453,-0.609026,-0.202537,9.818687439,-1.506629944,1.387265205,-12.7353344,31.57384682,13.95427895,-0.548828125,-0.203125,0.606933594
691,822770255,0.731422,-0.235146,-0.607091,-0.202909,9.678356171,-1.422709227,1.461166024,-11.08290672,29.03247452,12.20881939,-0.546386719,-0.203613281,0.600341797
692,822778588,0.732651,-0.235765,-0.605264,-0.203214,9.716641426,-1.320755959,1.633312345,-9.662081718,27.27117729,11.71346283,-0.547851563,-0.202636719,0.595947266
693,822786921,0.733833,-0.236351,-0.603541,-0.203391,9.726885796,-1.180301309,1.80554378,-8.12443161,25.90639496,12.374053,-0.548828125,-0.201171875,0.592529297
694,822795254,0.734976,-0.236944,-0.601915,-0.203392,9.66327858,-1.063865662,1.90654707,-6.579584122,23.62721443,13.66916084,-0.547851563,-0.200683594,0.588867188
695,822803587,0.736036,-0.237563,-0.600413,-0.203277,9.647026062,-1.000849247,1.996631742,-5.803752899,21.21560478,14.39401722,-0.548339844,-0.197265625,0.587402344
696,822811920,0.737018,-0.23823,-0.598999,-0.203111,9.72807312,-0.952277124,2.021991968,-5.893326759,19.77649307,14.9559164,-0.547851563,-0.194824219,0.583984375
697,822820253,0.737998,-0.23898,-0.597546,-0.20295,9.810606003,-1.012289286,2.075129032,-6.875889778,19.54066658,15.57416821,-0.549316406,-0.189941406,0.581542969
698,822828586,0.738942,-0.239863,-0.596062,-0.202836,9.823712349,-1.165486693,2.178132296,-8.823289871,19.73313141,16.30179405,-0.548095703,-0.190917969,0.578125
699,822836919,0.739877,-0.240864,-0.594514,-0.202787,9.842461586,-1.302071333,2.214929819,-10.77222729,20.04979897,16.76239014,-0.551513672,-0.187988281,0.573974609
700,822845252,0.74079,-0.241934,-0.59294,-0.202785,9.859095573,-1.386038423,2.207622766,-11.98765087,19.85272408,16.7943058,-0.550048828,-0.187011719,0.574462891
701,822853585,0.741693,-0.243005,-0.591361,-0.202817,9.845039368,-1.406394005,2.217231989,-12.33077812,20.11918831,16.49620628,-0.548095703,-0.18359375,0.570556641
702,822861918,0.742611,-0.244086,-0.589731,-0.202905,9.846759796,-1.468434215,2.28881073,-12.97572041,20.73449516,16.17531204,-0.549560547,-0.180175781,0.568115234
703,822870251,0.743551,-0.245165,-0.58804,-0.203069,9.787586212,-1.602206588,2.33166337,-13.66902256,21.972435,15.70198822,-0.550048828,-0.180664063,0.564208984
704,822878584,0.7445,-0.24629,-0.586276,-0.203331,9.70793438,-1.695869803,2.371832609,-15.10526562,22.82572174,15.27266884,-0.550048828,-0.180175781,0.560058594
705,822886917,0.745457,-0.247438,-0.584477,-0.203611,9.599323273,-1.615656137,2.401266098,-15.55520821,23.24418449,15.4275589,-0.549560547,-0.17578125,0.558105469
706,822895250,0.746429,-0.248636,-0.582609,-0.203942,9.545152664,-1.571500063,2.484875679,-16.62106705,24.28559494,15.63960552,-0.552001953,-0.174316406,0.555664063
707,822903583,0.747381,-0.249942,-0.580664,-0.204405,9.443559647,-1.598911285,2.714676857,-19.08223915,24.87899017,15.29067612,-0.550537109,-0.173828125,0.550292969
708,822911916,0.748273,-0.251328,-0.578717,-0.204963,9.429200172,-1.748546839,2.728636742,-20.85538864,24.81759453,14.89929295,-0.551513672,-0.170410156,0.547363281
709,822920249,0.749172,-0.252684,-0.576744,-0.205576,9.479189873,-1.941546202,2.673257113,-21.0413723,25.4399662,14.2105217,-0.551513672,-0.170410156,0.544189453
710,822928582,0.750063,-0.254073,-0.574725,-0.206268,9.454942703,-2.166643858,2.754858017,-22.16830063,25.72380447,13.69391251,-0.551513672,-0.167480469,0.540283203
711,822936915,0.750905,-0.255463,-0.572742,-0.207003,9.260316849,-2.35069561,2.942977428,-22.57764244,25.32752419,13.06856441,-0.549804688,-0.168457031,0.537353516
712,822945248,0.751713,-0.256787,-0.570823,-0.207727,9.115603447,-2.526480675,2.987714291,-21.76187515,24.32585144,12.25899887,-0.552001953,-0.165527344,0.536376953
713,822953581,0.752437,-0.258058,-0.569035,-0.208439,9.052512169,-2.687378883,2.982055426,-21.02910233,22.72380638,11.35437775,-0.549804688,-0.162109375,0.532958984
714,822961914,0.753141,-0.259234,-0.567332,-0.209076,9.067996025,-2.733938217,3.035512924,-19.29421997,21.3929615,10.93151093,-0.552246094,-0.165039063,0.530273438
715,822970247,0.753802,-0.260376,-0.56571,-0.20967,9.020375252,-2.767802715,3.141850233,-18.53337097,20.16337204,10.71965408,-0.551757813,-0.162109375,0.526855469
716,822978580,0.754393,-0.261523,-0.564185,-0.210226,9.021720886,-2.769277811,3.210107565,-18.24554253,18.76639748,10.67890263,-0.549804688,-0.16015625,0.525390625
717,822986913,0.754963,-0.262665,-0.562695,-0.21075,8.989693642,-2.771039963,3.213487864,-17.92288017,17.83009529,10.69567871,-0.550292969,-0.157226563,0.521484375
718,822995246,0.755524,-0.263788,-0.561228,-0.211247,8.972284317,-2.922437668,3.168185472,-17.48118782,17.7556839,10.79316711,-0.548339844,-0.155761719,0.517089844
719,823003579,0.756062,-0.264917,-0.55979,-0.211724,8.867583275,-3.108013391,3.122763157,-17.38085556,17.19199181,10.87449074,-0.550292969,-0.157226563,0.519042969
720,823011912,0.756589,-0.266036,-0.558367,-0.212194,8.712637901,-3.258713961,3.127516985,-17.24046516,16.66587257,10.71330166,-0.551757813,-0.153320313,0.517089844
721,823020245,0.757098,-0.26714,-0.556977,-0.212644,8.585109711,-3.378367662,3.222893,-16.87845993,16.47374153,10.69127274,-0.551757813,-0.15234375,0.514404297
722,823028578,0.757624,-0.268179,-0.555589,-0.213096,8.361553192,-3.550909996,3.348392487,-16.16453552,16.46659279,10.16123581,-0.551757813,-0.151367188,0.511962891
723,823036911,0.75812,-0.269168,-0.554252,-0.213565,8.172862053,-3.653866053,3.490138292,-15.71803093,16.18967819,9.345858574,-0.552734375,-0.150390625,0.508056641
724,823045244,0.758609,-0.270044,-0.552988,-0.213997,7.959763527,-3.725500345,3.495262384,-14.07761478,15.29868507,8.561317444,-0.548828125,-0.150390625,0.506591797
725,823053577,0.759098,-0.270764,-0.551828,-0.214349,7.884479523,-3.632693291,3.423841,-11.54884815,14.38758564,7.81747961,-0.549804688,-0.149414063,0.503662109
726,823061910,0.759593,-0.271339,-0.550758,-0.214619,7.861688614,-3.360774517,3.473466158,-9.117210388,13.74914932,7.255528927,-0.553222656,-0.148925781,0.506103516
727,823070243,0.760101,-0.271804,-0.549737,-0.214853,7.809168816,-3.114634514,3.555862904,-7.506508827,13.38532352,6.648777485,-0.551269531,-0.145996094,0.501708984
